Folder: ElectroChem/CV02.11.25

Note: README.md
# Repository for Work
In use with VersaStudio Software

File: 2ndsecondelectrode-1.2CV_650_FLiNaK_Ni_02_11_25_200mVperS_sh15.csv
Segment,Point,Elapsed Time (s),Potential (V),Current (A),Frequency (Hz),|Z| (ohms),Zre (ohms),Zim (ohms),Phase of Z (deg),ActionId
0,0,0.00551,-0.000919825,-0.000110414,0,0,0,0,-0.002284039,38
0,48,0.26999,-0.0533666,-0.000330936,0,0,0,0,-0.002284039,38
0,97,0.53998,-0.107654,-0.000385407,0,0,0,0,-0.002284039,38
0,145,0.80446,-0.160714,-0.000461838,0,0,0,0,-0.002284039,38
0,194,1.07445,-0.214387,-0.000560966,0,0,0,0,-0.002284039,38
0,242,1.33893,-0.267448,-0.000671871,0,0,0,0,-0.002284039,38
0,290,1.60341,-0.320201,-0.000787438,0,0,0,0,-0.002284039,38
0,339,1.8734,-0.374488,-0.000904784,0,0,0,0,-0.002284039,38
0,388,2.14339,-0.428162,-0.000988269,0,0,0,0,-0.002284039,38
0,436,2.40787,-0.481529,-0.00104857,0,0,0,0,-0.002284039,38
0,485,2.67786,-0.535202,-0.00109617,0,0,0,0,-0.002284039,38
0,534,2.94785,-0.589489,-0.00114628,0,0,0,0,-0.002284039,38
0,583,3.21784,-0.643163,-0.00122768,0,0,0,0,-0.002284039,38
0,631,3.48232,-0.696223,-0.00134288,0,0,0,0,-0.002284039,38
0,680,3.75231,-0.74959,-0.00151519,0,0,0,0,-0.002284039,38
0,729,4.0223,-0.804184,-0.00166965,0,0,0,0,-0.002284039,38
0,777,4.28678,-0.856631,-0.00176559,0,0,0,0,-0.002284039,38
0,826,4.55677,-0.910611,-0.00186171,0,0,0,0,-0.002284039,38
0,874,4.82125,-0.963364,-0.00200341,0,0,0,0,-0.002284039,38
0,923,5.09124,-1.01765,-0.00208744,0,0,0,0,-0.002284039,38
0,972,5.36123,-1.07163,-0.00212118,0,0,0,0,-0.002284039,38
1,1020,5.814857,-1.04127,-0.00176601,0,0,0,0,-0.002284039,38
1,1068,6.511673,-0.901716,-0.00130356,0,0,0,0,-0.002284039,38
1,1116,7.208489,-0.762778,-0.000618811,0,0,0,0,-0.002284039,38
1,1165,7.919822,-0.62016,-0.000154089,0,0,0,0,-0.002284039,38
1,1213,8.616638,-0.481222,-0.000225797,0,0,0,0,-0.002284039,38
1,1261,9.313454,-0.342284,0.000122063,0,0,0,0,-0.002284039,38
1,1309,10.01027,-0.203039,0.000312166,0,0,0,0,-0.002284039,38
1,1358,10.7216,-0.0604209,0.000450858,0,0,0,0,-0.002284039,38
1,1406,11.4184,0.0785171,0.00229784,0,0,0,0,-0.002284039,38
1,1454,12.1152,0.218068,0.00425279,0,0,0,0,-0.002284039,38
1,1503,12.8266,0.35946,0.00462084,0,0,0,0,-0.002284039,38
1,1551,13.5234,0.499012,0.00616357,0,0,0,0,-0.002284039,38
1,1599,14.2202,0.638563,0.00640771,0,0,0,0,-0.002284039,38
1,1647,14.917,0.777808,0.00663651,0,0,0,0,-0.002284039,38
1,1695,15.6138,0.916746,0.00976246,0,0,0,0,-0.002284039,38
1,1743,16.3106,1.05538,0.0136043,0,0,0,0,-0.002284039,38
1,1791,17.0075,1.19431,0.0169707,0,0,0,0,-0.002284039,38
1,1840,17.7188,1.33417,0.0262173,0,0,0,0,-0.002284039,38
1,1888,18.4156,1.47035,0.0436566,0,0,0,0,-0.002284039,38
1,1936,19.1124,1.60653,0.0642918,0,0,0,0,-0.002284039,38
1,1984,19.8092,1.74025,0.0958948,0,0,0,0,-0.002284039,38
1,2033,20.5206,1.69578,0.0241685,0,0,0,0,-0.002284039,38
1,2081,21.2174,1.56114,-0.00479259,0,0,0,0,-0.002284039,38
1,2129,21.91421,1.42956,-0.0469935,0,0,0,0,-0.002284039,38
1,2177,22.611,1.28449,-0.0179423,0,0,0,0,-0.002284039,38
1,2225,23.3078,1.14309,-0.00737261,0,0,0,0,-0.002284039,38
1,2273,24.0047,1.00324,-0.00305909,0,0,0,0,-0.002284039,38
1,2322,24.716,0.860925,-0.00119358,0,0,0,0,-0.002284039,38
1,2370,25.4128,0.72168,-0.00133313,0,0,0,0,-0.002284039,38
1,2418,26.1096,0.582129,-0.000935454,0,0,0,0,-0.002284039,38
1,2466,26.8064,0.443498,-0.000676778,0,0,0,0,-0.002284039,38
1,2515,27.5178,0.301186,-0.000613719,0,0,0,0,-0.002284039,38
1,2563,28.2146,0.161328,-0.000730145,0,0,0,0,-0.002284039,38
1,2611,28.9114,0.0223899,-0.00102237,0,0,0,0,-0.002284039,38
1,2659,29.60822,-0.116855,-0.00137631,0,0,0,0,-0.002284039,38
1,2708,30.3196,-0.259167,-0.00157874,0,0,0,0,-0.002284039,38
1,2756,31.0164,-0.399025,-0.00173381,0,0,0,0,-0.002284039,38
1,2804,31.7132,-0.537656,-0.00199604,0,0,0,0,-0.002284039,38
1,2852,32.41,-0.677207,-0.00243402,0,0,0,0,-0.002284039,38
1,2900,33.1068,-0.816452,-0.00320324,0,0,0,0,-0.002284039,38
1,2948,33.8036,-0.95539,-0.00517045,0,0,0,0,-0.002284039,38
1,2996,34.5004,-1.09402,-0.0118536,0,0,0,0,-0.002284039,38
2,3045,35.2118,-0.965818,-0.00729961,0,0,0,0,-0.002284039,38
2,3093,35.9086,-0.827187,-0.00293089,0,0,0,0,-0.002284039,38
2,3141,36.6054,-0.687942,-0.001555,0,0,0,0,-0.002284039,38
2,3190,37.3167,-0.545937,-0.000956556,0,0,0,0,-0.002284039,38
2,3238,38.0136,-0.406692,-0.00033339,0,0,0,0,-0.002284039,38
2,3286,38.7104,-0.267448,-8.98036e-06,0,0,0,0,-0.002284039,38
2,3334,39.4072,-0.127896,0.000796332,0,0,0,0,-0.002284039,38
2,3382,40.104,0.0113484,0.000732353,0,0,0,0,-0.002284039,38
2,3430,40.8008,0.150286,0.00101894,0,0,0,0,-0.002284039,38
2,3478,41.4976,0.289838,0.00120799,0,0,0,0,-0.002284039,38
2,3527,42.209,0.43215,0.00158236,0,0,0,0,-0.002284039,38
2,3575,42.9058,0.570781,0.00383628,0,0,0,0,-0.002284039,38
2,3623,43.6026,0.710025,0.004857,0,0,0,0,-0.002284039,38
2,3671,44.2994,0.84927,0.00725606,0,0,0,0,-0.002284039,38
2,3720,45.0108,0.990968,0.0110985,0,0,0,0,-0.002284039,38
2,3768,45.7076,1.13052,0.0122787,0,0,0,0,-0.002284039,38
2,3816,46.4044,1.26946,0.0127731,0,0,0,0,-0.002284039,38
2,3865,47.1157,1.41146,0.0140944,0,0,0,0,-0.002284039,38
2,3913,47.8125,1.54764,0.0297382,0,0,0,0,-0.002284039,38
2,3961,48.5094,1.68044,0.0644451,0,0,0,0,-0.002284039,38
2,4009,49.20617,1.75405,0.0780936,0,0,0,0,-0.002284039,38
2,4057,49.903,1.62524,0.0157402,0,0,0,0,-0.002284039,38
2,4105,50.5998,1.49458,-0.032928,0,0,0,0,-0.002284039,38
2,4153,51.2966,1.35319,-0.0225429,0,0,0,0,-0.002284039,38
2,4202,52.008,1.20873,-0.00743824,0,0,0,0,-0.002284039,38
2,4250,52.7048,1.06857,-0.00283642,0,0,0,0,-0.002284039,38
2,4298,53.4016,0.928707,-0.00215062,0,0,0,0,-0.002284039,38
2,4346,54.0984,0.789462,-0.0011215,0,0,0,0,-0.002284039,38
2,4395,54.8097,0.646844,-0.000609487,0,0,0,0,-0.002284039,38
2,4443,55.5065,0.507906,-0.000470181,0,0,0,0,-0.002284039,38
2,4491,56.2034,0.368355,-0.000504655,0,0,0,0,-0.002284039,38
2,4539,56.90018,0.229417,-0.000604089,0,0,0,0,-0.002284039,38
2,4587,57.597,0.090172,-0.000770446,0,0,0,0,-0.002284039,38
2,4635,58.2938,-0.0493794,-0.00110371,0,0,0,0,-0.002284039,38
2,4684,59.0051,-0.191384,-0.00142441,0,0,0,0,-0.002284039,38
2,4732,59.702,-0.331243,-0.00164438,0,0,0,0,-0.002284039,38
2,4780,60.3988,-0.470181,-0.00183533,0,0,0,0,-0.002284039,38
2,4828,61.0956,-0.609119,-0.00215676,0,0,0,0,-0.002284039,38
2,4877,61.8069,-0.75143,-0.0026665,0,0,0,0,-0.002284039,38
2,4925,62.5037,-0.890675,-0.00364183,0,0,0,0,-0.002284039,38
2,4973,63.2006,-1.02992,-0.00671257,0,0,0,0,-0.002284039,38
3,5021,63.8974,-1.0336,-0.00868102,0,0,0,0,-0.002284039,38
3,5070,64.6087,-0.891902,-0.00335107,0,0,0,0,-0.002284039,38
3,5118,65.3055,-0.753271,-0.00175559,0,0,0,0,-0.002284039,38
3,5166,66.0023,-0.613719,-0.00113629,0,0,0,0,-0.002284039,38
3,5214,66.6992,-0.474474,-0.000460734,0,0,0,0,-0.002284039,38
3,5262,67.396,-0.334616,-0.000119953,0,0,0,0,-0.002284039,38
3,5310,68.0928,-0.195372,0.000670644,0,0,0,0,-0.002284039,38
3,5358,68.7896,-0.0567404,0.000768729,0,0,0,0,-0.002284039,38
3,5407,69.5009,0.0855714,0.000935822,0,0,0,0,-0.002284039,38
3,5455,70.1978,0.225123,0.00112463,0,0,0,0,-0.002284039,38
3,5503,70.8946,0.363754,0.00125737,0,0,0,0,-0.002284039,38
3,5552,71.6059,0.506679,0.00280207,0,0,0,0,-0.002284039,38
3,5600,72.3027,0.645617,0.00450429,0,0,0,0,-0.002284039,38
3,5648,72.9995,0.784555,0.00568695,0,0,0,0,-0.002284039,38
3,5696,73.6963,0.923493,0.00939319,0,0,0,0,-0.002284039,38
3,5744,74.3932,1.06274,0.0119898,0,0,0,0,-0.002284039,38
3,5792,75.09,1.20198,0.0134607,0,0,0,0,-0.002284039,38
3,5840,75.7868,1.34092,0.0135442,0,0,0,0,-0.002284039,38
3,5889,76.49813,1.48017,0.0267632,0,0,0,0,-0.002284039,38
3,5937,77.1949,1.61389,0.0600408,0,0,0,0,-0.002284039,38
3,5985,77.8918,1.74669,0.101827,0,0,0,0,-0.002284039,38
3,6033,78.5886,1.69179,0.0244568,0,0,0,0,-0.002284039,38
3,6082,79.2999,1.55316,0.00312104,0,0,0,0,-0.002284039,38
3,6130,79.9967,1.42097,-0.0408103,0,0,0,0,-0.002284039,38
3,6178,80.6935,1.27805,-0.0190649,0,0,0,0,-0.002284039,38
3,6227,81.4049,1.13328,-0.00742965,0,0,0,0,-0.002284039,38
3,6275,82.1017,0.993729,-0.00314926,0,0,0,0,-0.002284039,38
3,6323,82.7985,0.853871,-0.00104654,0,0,0,0,-0.002284039,38
3,6371,83.4953,0.715239,2.01009e-05,0,0,0,0,-0.002284039,38
3,6419,84.19214,0.575381,-0.000411293,0,0,0,0,-0.002284039,38
3,6467,84.889,0.436137,-0.000163842,0,0,0,0,-0.002284039,38
3,6515,85.5858,0.296892,-0.000230275,0,0,0,0,-0.002284039,38
3,6564,86.2971,0.154274,-0.000548452,0,0,0,0,-0.002284039,38
3,6612,86.9939,0.0153356,-0.00100066,0,0,0,0,-0.002284039,38
3,6660,87.6907,-0.123909,-0.00141373,0,0,0,0,-0.002284039,38
3,6708,88.3876,-0.263154,-0.00172676,0,0,0,0,-0.002284039,38
3,6757,89.0989,-0.405159,-0.00204696,0,0,0,0,-0.002284039,38
3,6805,89.7957,-0.54471,-0.00249598,0,0,0,0,-0.002284039,38
3,6853,90.4925,-0.683955,-0.00305418,0,0,0,0,-0.002284039,38
3,6901,91.1893,-0.8232,-0.00414667,0,0,0,0,-0.002284039,38
3,6949,91.88615,-0.962138,-0.0071346,0,0,0,0,-0.002284039,38
4,6997,92.5759,-1.09034,-0.0200991,0,0,0,0,-0.002284039,38
4,7045,92.9346,-1.02103,-0.00516371,0,0,0,0,-0.002284039,38
4,7094,93.3008,-0.947109,-0.00991704,0,0,0,0,-0.002284039,38
4,7143,93.66698,-0.874113,-0.00628196,0,0,0,0,-0.002284039,38
4,7192,94.0332,-0.801423,-0.00377801,0,0,0,0,-0.002284039,38
4,7240,94.3919,-0.730268,-0.0025015,0,0,0,0,-0.002284039,38
4,7288,94.7506,-0.657578,-0.00191262,0,0,0,0,-0.002284039,38
4,7336,95.1093,-0.586422,-0.00156911,0,0,0,0,-0.002284039,38
4,7384,95.468,-0.514653,-0.00125786,0,0,0,0,-0.002284039,38
4,7433,95.83415,-0.441657,-0.000905336,0,0,0,0,-0.002284039,38
4,7482,96.2003,-0.368967,-0.000557224,0,0,0,0,-0.002284039,38
4,7531,96.5665,-0.295358,-0.000231993,0,0,0,0,-0.002284039,38
4,7580,96.9327,-0.222362,-0.000114966,0,0,0,0,-0.002284039,38
4,7628,97.2914,-0.150286,0.000320876,0,0,0,0,-0.002284039,38
4,7676,97.6501,-0.0788232,0.000696162,0,0,0,0,-0.002284039,38
4,7724,98.0088,-0.00674725,0.000962506,0,0,0,0,-0.002284039,38
4,7772,98.3675,0.065022,0.000945024,0,0,0,0,-0.002284039,38
4,7821,98.7337,0.138018,0.000951035,0,0,0,0,-0.002284039,38
4,7870,99.0999,0.211321,0.00115757,0,0,0,0,-0.002284039,38
4,7919,99.466,0.28401,0.00135061,0,0,0,0,-0.002284039,38
4,7967,99.8247,0.355473,0.00152065,0,0,0,0,-0.002284039,38
4,7996,100.041,0.399332,0.00159598,0,0,0,0,-0.002284039,38

File: scan1652secondelectrode-1.108CV_650_FLiNaK_Ni_02_11_25_200mVperS_sh15.csv
Segment,Point,Elapsed Time (s),Potential (V),Current (A),Frequency (Hz),|Z| (ohms),Zre (ohms),Zim (ohms),Phase of Z (deg),ActionId
0,0,0.0085,-0.00153353,-0.000933001,0,0,0,0,-0.002284039,38
0,36,0.3145,-0.0628748,-0.00325661,0,0,0,0,-0.002284039,38
0,72,0.6205,-0.123603,-0.00507292,0,0,0,0,-0.002284039,38
0,108,0.9265,-0.184331,-0.00675858,0,0,0,0,-0.002284039,38
0,144,1.2325,-0.245365,-0.00836388,0,0,0,0,-0.002284039,38
0,180,1.5385,-0.3064,-0.00991091,0,0,0,0,-0.002284039,38
0,216,1.8445,-0.367127,-0.0114224,0,0,0,0,-0.002284039,38
0,252,2.1505,-0.428469,-0.0129363,0,0,0,0,-0.002284039,38
0,288,2.4565,-0.489197,-0.0144367,0,0,0,0,-0.002284039,38
0,324,2.7625,-0.550845,-0.0159493,0,0,0,0,-0.002284039,38
0,360,3.0685,-0.611266,-0.0174675,0,0,0,0,-0.002284039,38
0,396,3.3745,-0.671073,-0.0190465,0,0,0,0,-0.002284039,38
0,432,3.6805,-0.732415,-0.0206843,0,0,0,0,-0.002284039,38
0,468,3.9865,-0.793143,-0.0222362,0,0,0,0,-0.002284039,38
0,504,4.2925,-0.854177,-0.0237023,0,0,0,0,-0.002284039,38
0,540,4.5985,-0.914598,-0.0251622,0,0,0,0,-0.002284039,38
0,576,4.9045,-0.97594,-0.0266466,0,0,0,0,-0.002284039,38
0,612,5.2105,-1.03697,-0.0280698,0,0,0,0,-0.002284039,38
0,648,5.5165,-1.0977,-0.0297137,0,0,0,0,-0.002284039,38
0,684,5.8225,-1.15935,-0.0313331,0,0,0,0,-0.002284039,38
0,721,6.137,-1.2213,-0.0330139,0,0,0,0,-0.002284039,38
0,758,6.4515,-1.28449,-0.0346885,0,0,0,0,-0.002284039,38
0,794,6.7575,-1.34491,-0.0364183,0,0,0,0,-0.002284039,38
0,831,7.072,-1.40717,-0.0385714,0,0,0,0,-0.002284039,38
0,867,7.378,-1.4679,-0.0406447,0,0,0,0,-0.002284039,38
0,904,7.6925,-1.53077,-0.0432824,0,0,0,0,-0.002284039,38
0,940,7.9985,-1.59058,-0.0466807,0,0,0,0,-0.002284039,38
0,977,8.313,-1.65284,-0.0516616,0,0,0,0,-0.002284039,38
1,1013,8.717112,-1.6464,-0.0589122,0,0,0,0,-0.002284039,38
1,1049,9.2754,-1.54181,-0.0176295,0,0,0,0,-0.002284039,38
1,1085,9.833688,-1.42649,-0.0392891,0,0,0,0,-0.002284039,38
1,1121,10.392,-1.31546,-0.0353878,0,0,0,0,-0.002284039,38
1,1157,10.9503,-1.20444,-0.0319465,0,0,0,0,-0.002284039,38
1,1193,11.5086,-1.09402,-0.0286157,0,0,0,0,-0.002284039,38
1,1229,12.06684,-0.98238,-0.0250579,0,0,0,0,-0.002284039,38
1,1265,12.6251,-0.871046,-0.0215921,0,0,0,0,-0.002284039,38
1,1301,13.1834,-0.760325,-0.0181079,0,0,0,0,-0.002284039,38
1,1337,13.7417,-0.649604,-0.014636,0,0,0,0,-0.002284039,38
1,1373,14.3,-0.53919,-0.0111807,0,0,0,0,-0.002284039,38
1,1409,14.85828,-0.427855,-0.00861231,0,0,0,0,-0.002284039,38
1,1445,15.4166,-0.316521,-0.00596851,0,0,0,0,-0.002284039,38
1,1481,15.9749,-0.2058,-0.00297137,0,0,0,0,-0.002284039,38
1,1517,16.5331,-0.0935454,0.000736095,0,0,0,0,-0.002284039,38
1,1553,17.0914,0.0171756,0.00554402,0,0,0,0,-0.002284039,38
1,1589,17.64972,0.127897,0.00962874,0,0,0,0,-0.002284039,38
1,1625,18.208,0.239538,0.014341,0,0,0,0,-0.002284039,38
1,1661,18.7663,0.349339,0.020077,0,0,0,0,-0.002284039,38
1,1697,19.3246,0.459446,0.0274564,0,0,0,0,-0.002284039,38
1,1733,19.8829,0.569554,0.0338052,0,0,0,0,-0.002284039,38
1,1769,20.44116,0.680888,0.0372526,0,0,0,0,-0.002284039,38
1,1805,20.9994,0.792836,0.0398902,0,0,0,0,-0.002284039,38
1,1841,21.5577,0.90325,0.0474413,0,0,0,0,-0.002284039,38
1,1877,22.116,1.01121,0.064942,0,0,0,0,-0.002284039,38
1,1914,22.68982,1.12163,0.0895398,0,0,0,0,-0.002284039,38
1,1950,23.2481,1.22867,0.11707,0,0,0,0,-0.002284039,38
1,1987,23.8219,1.34092,0.130657,0,0,0,0,-0.002284039,38
1,2024,24.3957,1.30841,0.0729777,0,0,0,0,-0.002284039,38
1,2060,24.954,1.19953,0.0570228,0,0,0,0,-0.002284039,38
1,2097,25.5278,1.09249,0.0134644,0,0,0,0,-0.002284039,38
1,2133,26.0861,0.986061,-0.018249,0,0,0,0,-0.002284039,38
1,2169,26.64436,0.870126,0.00723766,0,0,0,0,-0.002284039,38
1,2205,27.2026,0.757565,0.0147796,0,0,0,0,-0.002284039,38
1,2241,27.7609,0.645924,0.0163775,0,0,0,0,-0.002284039,38
1,2277,28.3192,0.534896,0.0157899,0,0,0,0,-0.002284039,38
1,2313,28.8775,0.423255,0.0140637,0,0,0,0,-0.002284039,38
1,2349,29.4358,0.31192,0.0114279,0,0,0,0,-0.002284039,38
1,2385,29.9941,0.200893,0.0085203,0,0,0,0,-0.002284039,38
1,2421,30.5524,0.089865,-0.00130234,0,0,0,0,-0.002284039,38
1,2457,31.1107,-0.0211627,-0.00644819,0,0,0,0,-0.002284039,38
1,2493,31.669,-0.13127,-0.0118303,0,0,0,0,-0.002284039,38
1,2529,32.22724,-0.242911,-0.016353,0,0,0,0,-0.002284039,38
1,2565,32.7855,-0.353326,-0.0197274,0,0,0,0,-0.002284039,38
1,2601,33.3438,-0.46466,-0.0220092,0,0,0,0,-0.002284039,38
1,2637,33.9021,-0.575994,-0.0236961,0,0,0,0,-0.002284039,38
1,2673,34.4604,-0.686715,-0.0253523,0,0,0,0,-0.002284039,38
1,2709,35.01868,-0.79805,-0.0273827,0,0,0,0,-0.002284039,38
1,2745,35.577,-0.909691,-0.0296278,0,0,0,0,-0.002284039,38
1,2781,36.1353,-1.02072,-0.0319404,0,0,0,0,-0.002284039,38
1,2817,36.6935,-1.13205,-0.0344063,0,0,0,0,-0.002284039,38
1,2853,37.2518,-1.24277,-0.0375715,0,0,0,0,-0.002284039,38
1,2889,37.81012,-1.3538,-0.0413256,0,0,0,0,-0.002284039,38
1,2925,38.3684,-1.46483,-0.0473003,0,0,0,0,-0.002284039,38
1,2961,38.9267,-1.56758,-0.100268,0,0,0,0,-0.002284039,38
1,2997,39.485,-1.6691,-0.156561,0,0,0,0,-0.002284039,38
2,3034,40.05878,-1.57095,-0.102293,0,0,0,0,-0.002284039,38
2,3070,40.6171,-1.4679,-0.0552501,0,0,0,0,-0.002284039,38
2,3107,41.1909,-1.3627,-0.00261375,0,0,0,0,-0.002284039,38
2,3144,41.76466,-1.25627,0.047245,0,0,0,0,-0.002284039,38
2,3180,42.3229,-1.1388,0.0155255,0,0,0,0,-0.002284039,38
2,3217,42.8967,-1.02593,0.0223466,0,0,0,0,-0.002284039,38
2,3254,43.47054,-0.901717,-0.0276649,0,0,0,0,-0.002284039,38
2,3290,44.0288,-0.791609,-0.022868,0,0,0,0,-0.002284039,38
2,3326,44.5871,-0.680581,-0.0188502,0,0,0,0,-0.002284039,38
2,3362,45.1454,-0.569247,-0.015182,0,0,0,0,-0.002284039,38
2,3398,45.7037,-0.459446,-0.0117229,0,0,0,0,-0.002284039,38
2,3434,46.26198,-0.347805,-0.0082731,0,0,0,0,-0.002284039,38
2,3470,46.8203,-0.236777,-0.00519806,0,0,0,0,-0.002284039,38
2,3506,47.3786,-0.125136,-0.00163474,0,0,0,0,-0.002284039,38
2,3542,47.9368,-0.0141085,0.00446994,0,0,0,0,-0.002284039,38
2,3578,48.4951,0.0966125,0.00881413,0,0,0,0,-0.002284039,38
2,3614,49.05342,0.207947,0.0121106,0,0,0,0,-0.002284039,38
2,3650,49.6117,0.319588,0.0151985,0,0,0,0,-0.002284039,38
2,3686,50.17,0.429389,0.0186968,0,0,0,0,-0.002284039,38
2,3722,50.7283,0.539803,0.023003,0,0,0,0,-0.002284039,38
2,3758,51.2866,0.651138,0.0275545,0,0,0,0,-0.002284039,38
2,3794,51.84486,0.762165,0.0323391,0,0,0,0,-0.002284039,38
2,3830,52.4031,0.872273,0.0389394,0,0,0,0,-0.002284039,38
2,3866,52.9614,0.982687,0.048981,0,0,0,0,-0.002284039,38
2,3902,53.5197,1.09065,0.0667761,0,0,0,0,-0.002284039,38
2,3938,54.078,1.19799,0.0909262,0,0,0,0,-0.002284039,38
2,3974,54.6363,1.30534,0.119229,0,0,0,0,-0.002284039,38
2,4010,55.1946,1.34797,0.0835468,0,0,0,0,-0.002284039,38
2,4046,55.7529,1.24124,0.0512936,0,0,0,0,-0.002284039,38
2,4082,56.3112,1.13757,0.0114003,0,0,0,0,-0.002284039,38
2,4118,56.8695,1.02777,-0.00597587,0,0,0,0,-0.002284039,38
2,4155,57.4432,0.910611,0.0143275,0,0,0,0,-0.002284039,38
2,4191,58.0015,0.79897,0.0181245,0,0,0,0,-0.002284039,38
2,4228,58.5753,0.682728,0.0182797,0,0,0,0,-0.002284039,38
2,4265,59.1491,0.568327,0.0167707,0,0,0,0,-0.002284039,38
2,4301,59.7074,0.457299,0.0144029,0,0,0,0,-0.002284039,38
2,4338,60.2812,0.344125,0.00642366,0,0,0,0,-0.002284039,38
2,4375,60.855,0.229723,0.00219786,0,0,0,0,-0.002284039,38
2,4411,61.4133,0.118082,-0.00240458,0,0,0,0,-0.002284039,38
2,4447,61.9716,0.00766766,-0.00696469,0,0,0,0,-0.002284039,38
2,4483,62.5299,-0.103667,-0.0112028,0,0,0,0,-0.002284039,38
2,4519,63.08816,-0.214694,-0.015012,0,0,0,0,-0.002284039,38
2,4555,63.6464,-0.324802,-0.0181386,0,0,0,0,-0.002284039,38
2,4591,64.2047,-0.436136,-0.0204266,0,0,0,0,-0.002284039,38
2,4627,64.763,-0.547471,-0.0221687,0,0,0,0,-0.002284039,38
2,4663,65.3213,-0.658499,-0.0239415,0,0,0,0,-0.002284039,38
2,4699,65.8796,-0.77014,-0.0260271,0,0,0,0,-0.002284039,38
2,4735,66.4379,-0.881167,-0.0283581,0,0,0,0,-0.002284039,38
2,4771,66.9962,-0.992195,-0.0308056,0,0,0,0,-0.002284039,38
2,4807,67.5545,-1.10353,-0.0333819,0,0,0,0,-0.002284039,38
2,4843,68.1128,-1.21456,-0.0362834,0,0,0,0,-0.002284039,38
2,4879,68.67104,-1.32528,-0.0399454,0,0,0,0,-0.002284039,38
2,4915,69.2293,-1.43631,-0.0450736,0,0,0,0,-0.002284039,38
2,4951,69.7876,-1.54028,-0.0892331,0,0,0,0,-0.002284039,38
2,4987,70.3459,-1.64241,-0.145692,0,0,0,0,-0.002284039,38
3,5023,70.7698,-1.59365,-0.117788,0,0,0,0,-0.002284039,38
3,5059,71.14194,-1.52556,-0.0800749,0,0,0,0,-0.002284039,38
3,5095,71.5141,-1.45686,-0.046282,0,0,0,0,-0.002284039,38
3,5131,71.8863,-1.38877,-0.0115273,0,0,0,0,-0.002284039,38
3,5167,72.2584,-1.32037,0.0243709,0,0,0,0,-0.002284039,38
3,5203,72.6306,-1.25106,0.0542563,0,0,0,0,-0.002284039,38
3,5239,73.00278,-1.17039,0.0185803,0,0,0,0,-0.002284039,38
3,5275,73.3749,-1.09586,0.0166419,0,0,0,0,-0.002284039,38
3,5311,73.7471,-1.02287,0.0253217,0,0,0,0,-0.002284039,38
3,5347,74.1193,-0.938521,-0.0307381,0,0,0,0,-0.002284039,38
3,5383,74.4915,-0.865219,-0.0269963,0,0,0,0,-0.002284039,38
3,5419,74.86362,-0.790996,-0.0236287,0,0,0,0,-0.002284039,38
3,5455,75.2358,-0.717386,-0.0207211,0,0,0,0,-0.002284039,38
3,5491,75.608,-0.642856,-0.0180773,0,0,0,0,-0.002284039,38
3,5527,75.9801,-0.56894,-0.0156052,0,0,0,0,-0.002284039,38
3,5563,76.3523,-0.496251,-0.0133454,0,0,0,0,-0.002284039,38
3,5599,76.72446,-0.422335,-0.0108519,0,0,0,0,-0.002284039,38
3,5635,77.0966,-0.347805,-0.0086209,0,0,0,0,-0.002284039,38
3,5671,77.4688,-0.273582,-0.00657272,0,0,0,0,-0.002284039,38
3,5707,77.841,-0.199052,-0.00446871,0,0,0,0,-0.002284039,38
3,5743,78.2131,-0.125136,-0.00113543,0,0,0,0,-0.002284039,38
3,5779,78.5853,-0.0515267,0.00287384,0,0,0,0,-0.002284039,38
3,5815,78.9575,0.0226963,0.00610468,0,0,0,0,-0.002284039,38
3,5851,79.3296,0.0969192,0.00883437,0,0,0,0,-0.002284039,38
3,5887,79.7018,0.170529,0.0111273,0,0,0,0,-0.002284039,38
3,5923,80.074,0.245365,0.0131467,0,0,0,0,-0.002284039,38
3,5959,80.44614,0.319588,0.0151629,0,0,0,0,-0.002284039,38
3,5995,80.8183,0.393504,0.0173835,0,0,0,0,-0.002284039,38
3,5997,80.839,0.397798,0.0175197,0,0,0,0,-0.002284039,38