Folder: ElectroChem/CV02.11.25 (part 2)

File: secondelectrode-1.1CV_650_FLiNaK_Ni_02_11_25_200mVperS_sh15.csv
Segment,Point,Elapsed Time (s),Potential (V),Current (A),Frequency (Hz),|Z| (ohms),Zre (ohms),Zim (ohms),Phase of Z (deg),ActionId
0,0,0.0055,-0.00122653,-2.00991e-05,0,0,0,0,-0.002284039,38
0,49,0.2805,-0.0558203,-0.000181325,0,0,0,0,-0.002284039,38
0,97,0.5445,-0.10888,-0.00015323,0,0,0,0,-0.002284039,38
0,145,0.8085,-0.161941,-0.000145195,0,0,0,0,-0.002284039,38
0,193,1.0725,-0.214694,-0.000166603,0,0,0,0,-0.002284039,38
0,242,1.342,-0.267754,-0.000196353,0,0,0,0,-0.002284039,38
0,291,1.6115,-0.322348,-0.000238801,0,0,0,0,-0.002284039,38
0,341,1.8865,-0.377555,-0.000279041,0,0,0,0,-0.002284039,38
0,390,2.156,-0.431229,-0.000296892,0,0,0,0,-0.002284039,38
0,439,2.4255,-0.484596,-0.00030732,0,0,0,0,-0.002284039,38
0,487,2.6895,-0.537656,-0.000303087,0,0,0,0,-0.002284039,38
0,535,2.9535,-0.590409,-0.000298977,0,0,0,0,-0.002284039,38
0,583,3.2175,-0.644083,-0.000309835,0,0,0,0,-0.002284039,38
0,631,3.4815,-0.69561,-0.000347621,0,0,0,0,-0.002284039,38
0,679,3.7455,-0.74867,-0.000436872,0,0,0,0,-0.002284039,38
0,729,4.0205,-0.80357,-0.000489871,0,0,0,0,-0.002284039,38
0,778,4.29,-0.857551,-0.000501403,0,0,0,0,-0.002284039,38
0,827,4.5595,-0.911224,-0.000539312,0,0,0,0,-0.002284039,38
0,876,4.829,-0.965818,-0.000613413,0,0,0,0,-0.002284039,38
0,925,5.0985,-1.01949,-0.000621694,0,0,0,0,-0.002284039,38
0,973,5.3625,-1.07225,-0.00059317,0,0,0,0,-0.002284039,38
1,1022,5.848168,-1.03115,-0.000393443,0,0,0,0,-0.002284039,38
1,1070,6.544504,-0.891902,-0.000241807,0,0,0,0,-0.002284039,38
1,1118,7.24084,-0.752044,5.89551e-05,0,0,0,0,-0.002284039,38
1,1166,7.937176,-0.613106,0.000376942,0,0,0,0,-0.002284039,38
1,1214,8.633512,-0.474168,0.000148078,0,0,0,0,-0.002284039,38
1,1263,9.344355,-0.331856,0.000389701,0,0,0,0,-0.002284039,38
1,1311,10.0407,-0.192918,0.000233342,0,0,0,0,-0.002284039,38
1,1359,10.737,-0.0536733,0.000297689,0,0,0,0,-0.002284039,38
1,1407,11.4334,0.0855714,0.00232054,0,0,0,0,-0.002284039,38
1,1455,12.1297,0.223283,0.0159788,0,0,0,0,-0.002284039,38
1,1504,12.8405,0.364674,0.0170099,0,0,0,0,-0.002284039,38
1,1552,13.5369,0.505146,0.0127424,0,0,0,0,-0.002284039,38
1,1600,14.2332,0.642243,0.0208744,0,0,0,0,-0.002284039,38
1,1648,14.92955,0.780261,0.0263338,0,0,0,0,-0.002284039,38
1,1696,15.6259,0.917666,0.0353448,0,0,0,0,-0.002284039,38
1,1745,16.3367,1.05476,0.066543,0,0,0,0,-0.002284039,38
1,1793,17.0331,1.19523,0.0608751,0,0,0,0,-0.002284039,38
1,1841,17.7294,1.33141,0.0778543,0,0,0,0,-0.002284039,38
1,1889,18.4257,1.46943,0.0842584,0,0,0,0,-0.002284039,38
1,1937,19.1221,1.60837,0.0857735,0,0,0,0,-0.002284039,38
1,1986,19.8329,1.74976,0.0913617,0,0,0,0,-0.002284039,38
1,2034,20.5293,1.67922,0.0886811,0,0,0,0,-0.002284039,38
1,2082,21.2256,1.54028,0.0839149,0,0,0,0,-0.002284039,38
1,2130,21.9219,1.40288,0.0756522,0,0,0,0,-0.002284039,38
1,2178,22.61826,1.26946,0.0430922,0,0,0,0,-0.002284039,38
1,2227,23.3291,1.13389,0.0013219,0,0,0,0,-0.002284039,38
1,2275,24.0254,1.00477,-0.0572621,0,0,0,0,-0.002284039,38
1,2323,24.7218,0.8735,-0.104292,0,0,0,0,-0.002284039,38
1,2371,25.4181,0.737936,-0.122216,0,0,0,0,-0.002284039,38
1,2419,26.1144,0.607892,-0.179313,0,0,0,0,-0.002284039,38
1,2468,26.82529,0.443804,-0.0510973,0,0,0,0,-0.002284039,38
1,2516,27.5216,0.299346,-0.0200831,0,0,0,0,-0.002284039,38
1,2564,28.218,0.157954,-0.0121989,0,0,0,0,-0.002284039,38
1,2612,28.9143,0.018096,-0.00707817,0,0,0,0,-0.002284039,38
1,2660,29.6106,-0.121455,-0.00503489,0,0,0,0,-0.002284039,38
1,2709,30.3215,-0.26346,-0.00421353,0,0,0,0,-0.002284039,38
1,2757,31.0178,-0.402705,-0.0050809,0,0,0,0,-0.002284039,38
1,2805,31.7141,-0.541336,-0.01542,0,0,0,0,-0.002284039,38
1,2853,32.4105,-0.663406,-0.106096,0,0,0,0,-0.002284039,38
1,2901,33.1068,-0.79805,-0.133957,0,0,0,0,-0.002284039,38
1,2950,33.8177,-0.934534,-0.165204,0,0,0,0,-0.002284039,38
1,2998,34.514,-1.07439,-0.142894,0,0,0,0,-0.002284039,38
2,3046,35.2103,-0.941895,-0.100195,0,0,0,0,-0.002284039,38
2,3094,35.9067,-0.804797,-0.0901471,0,0,0,0,-0.002284039,38
2,3142,36.603,-0.675367,-0.032333,0,0,0,0,-0.002284039,38
2,3191,37.3139,-0.54563,0.038553,0,0,0,0,-0.002284039,38
2,3239,38.0102,-0.419574,0.113856,0,0,0,0,-0.002284039,38
2,3287,38.7065,-0.289224,0.188563,0,0,0,0,-0.002284039,38
2,3335,39.4029,-0.149979,0.189115,0,0,0,0,-0.002284039,38
2,3383,40.0992,-0.0092009,0.181263,0,0,0,0,-0.002284039,38
2,3432,40.81,0.160101,0.00194084,0,0,0,0,-0.002284039,38
2,3480,41.5064,0.299039,0.00236164,0,0,0,0,-0.002284039,38
2,3528,42.20271,0.438284,0.00264197,0,0,0,0,-0.002284039,38
2,3576,42.899,0.577222,0.00299223,0,0,0,0,-0.002284039,38
2,3624,43.5954,0.716466,0.00367434,0,0,0,0,-0.002284039,38
2,3673,44.3062,0.858778,0.00342468,0,0,0,0,-0.002284039,38
2,3721,45.0026,0.998023,0.00338359,0,0,0,0,-0.002284039,38
2,3769,45.6989,1.13696,0.00352896,0,0,0,0,-0.002284039,38
2,3817,46.3952,1.2759,0.00402828,0,0,0,0,-0.002284039,38
2,3865,47.0916,1.41453,0.00871537,0,0,0,0,-0.002284039,38
2,3914,47.8024,1.55255,0.0323637,0,0,0,0,-0.002284039,38
2,3962,48.4987,1.68535,0.0714135,0,0,0,0,-0.002284039,38
2,4010,49.1951,1.74823,0.0824365,0,0,0,0,-0.002284039,38
2,4058,49.89142,1.62002,0.0139429,0,0,0,0,-0.002284039,38
2,4106,50.5878,1.48967,-0.0388229,0,0,0,0,-0.002284039,38
2,4155,51.2986,1.34889,-0.042853,0,0,0,0,-0.002284039,38
2,4203,51.9949,1.20321,-0.0105335,0,0,0,0,-0.002284039,38
2,4251,52.6913,1.06335,-0.00514715,0,0,0,0,-0.002284039,38
2,4299,53.3876,0.9238,-0.00240212,0,0,0,0,-0.002284039,38
2,4347,54.0839,0.784555,-0.00107629,0,0,0,0,-0.002284039,38
2,4396,54.7948,0.641937,-0.000949195,0,0,0,0,-0.002284039,38
2,4444,55.4911,0.502999,9.05765e-05,0,0,0,0,-0.002284039,38
2,4492,56.1875,0.363754,-0.000788971,0,0,0,0,-0.002284039,38
2,4540,56.8838,0.225123,-0.00124609,0,0,0,0,-0.002284039,38
2,4588,57.58013,0.0858781,-0.00136779,0,0,0,0,-0.002284039,38
2,4637,58.291,-0.0567404,-0.00136736,0,0,0,0,-0.002284039,38
2,4685,58.9873,-0.195985,-0.00136951,0,0,0,0,-0.002284039,38
2,4733,59.6836,-0.334923,-0.00174393,0,0,0,0,-0.002284039,38
2,4781,60.38,-0.474168,-0.00201383,0,0,0,0,-0.002284039,38
2,4829,61.0763,-0.613412,-0.00254566,0,0,0,0,-0.002284039,38
2,4878,61.78716,-0.755111,-0.00405466,0,0,0,0,-0.002284039,38
2,4926,62.4835,-0.894049,-0.00822218,0,0,0,0,-0.002284039,38
2,4974,63.1798,-1.02195,-0.0708124,0,0,0,0,-0.002284039,38
3,5022,63.8762,-1.00446,-0.131651,0,0,0,0,-0.002284039,38
3,5070,64.5725,-0.872273,-0.0911286,0,0,0,0,-0.002284039,38
3,5119,65.2833,-0.740389,-0.0328483,0,0,0,0,-0.002284039,38
3,5167,65.9797,-0.612799,0.0343572,0,0,0,0,-0.002284039,38
3,5215,66.676,-0.481529,0.0840253,0,0,0,0,-0.002284039,38
3,5263,67.3724,-0.337377,0.0552685,0,0,0,0,-0.002284039,38
3,5311,68.0687,-0.201812,0.0728244,0,0,0,0,-0.002284039,38
3,5360,68.7795,-0.0466191,0.000754314,0,0,0,0,-0.002284039,38
3,5408,69.47587,0.0923189,0.00163198,0,0,0,0,-0.002284039,38
3,5456,70.1722,0.231257,0.00244322,0,0,0,0,-0.002284039,38
3,5504,70.8685,0.370808,0.00319649,0,0,0,0,-0.002284039,38
3,5552,71.5649,0.50944,0.00261375,0,0,0,0,-0.002284039,38
3,5602,72.2902,0.654512,0.00278919,0,0,0,0,-0.002284039,38
3,5650,72.9866,0.79345,0.00308669,0,0,0,0,-0.002284039,38
3,5698,73.6829,0.932694,0.0064574,0,0,0,0,-0.002284039,38
3,5746,74.3792,1.07194,0.00793572,0,0,0,0,-0.002284039,38
3,5794,75.0756,1.21118,0.00929627,0,0,0,0,-0.002284039,38
3,5844,75.8009,1.35564,0.0130835,0,0,0,0,-0.002284039,38
3,5892,76.4973,1.49243,0.0238434,0,0,0,0,-0.002284039,38
3,5940,77.1936,1.62493,0.0594458,0,0,0,0,-0.002284039,38
3,5988,77.88993,1.75773,0.100888,0,0,0,0,-0.002284039,38
3,6036,78.5863,1.67768,0.0414299,0,0,0,0,-0.002284039,38
3,6085,79.2971,1.54427,-0.0171774,0,0,0,0,-0.002284039,38
3,6133,79.9934,1.41269,-0.0536,0,0,0,0,-0.002284039,38
3,6181,80.6898,1.267,-0.019709,0,0,0,0,-0.002284039,38
3,6229,81.3861,1.12561,-0.0085933,0,0,0,0,-0.002284039,38
3,6277,82.0825,0.986061,-0.00360319,0,0,0,0,-0.002284039,38
3,6326,82.7933,0.844363,-0.00253217,0,0,0,0,-0.002284039,38
3,6374,83.4896,0.704198,-0.00159242,0,0,0,0,-0.002284039,38
3,6422,84.186,0.56526,-0.00103446,0,0,0,0,-0.002284039,38
3,6470,84.8823,0.426015,-0.000804797,0,0,0,0,-0.002284039,38
3,6518,85.57864,0.286464,-0.00068647,0,0,0,0,-0.002284039,38
3,6567,86.2895,0.144766,-0.000728734,0,0,0,0,-0.002284039,38
3,6615,86.9858,0.0052143,-0.00113764,0,0,0,0,-0.002284039,38
3,6663,87.6822,-0.13403,-0.00130577,0,0,0,0,-0.002284039,38
3,6711,88.3785,-0.272968,-0.00144765,0,0,0,0,-0.002284039,38
3,6759,89.0748,-0.41252,-0.00147348,0,0,0,0,-0.002284039,38
3,6808,89.78567,-0.554525,-0.00188563,0,0,0,0,-0.002284039,38
3,6856,90.482,-0.693156,-0.00243709,0,0,0,0,-0.002284039,38
3,6904,91.1783,-0.833014,-0.00409698,0,0,0,0,-0.002284039,38
3,6952,91.8747,-0.971032,-0.00875462,0,0,0,0,-0.002284039,38
4,7000,92.5356,-1.07102,-0.0492325,0,0,0,0,-0.002284039,38
4,7048,92.8924,-1.00201,-0.0333022,0,0,0,0,-0.002284039,38
4,7096,93.2491,-0.933307,-0.018341,0,0,0,0,-0.002284039,38
4,7144,93.6058,-0.864605,-0.00136852,0,0,0,0,-0.002284039,38
4,7194,93.9774,-0.793449,0.0190403,0,0,0,0,-0.002284039,38
4,7242,94.3342,-0.72536,0.0372464,0,0,0,0,-0.002284039,38
4,7290,94.6909,-0.647763,-0.00202794,0,0,0,0,-0.002284039,38
4,7338,95.0477,-0.576301,-0.00124879,0,0,0,0,-0.002284039,38
4,7386,95.4044,-0.505452,-0.000927541,0,0,0,0,-0.002284039,38
4,7434,95.7611,-0.433989,-0.000666964,0,0,0,0,-0.002284039,38
4,7482,96.1179,-0.362527,-0.000401908,0,0,0,0,-0.002284039,38
4,7530,96.4746,-0.290757,-0.000184024,0,0,0,0,-0.002284039,38
4,7579,96.8388,-0.217761,-2.45426e-06,0,0,0,0,-0.002284039,38
4,7628,97.2029,-0.145379,0.000113371,0,0,0,0,-0.002284039,38
4,7676,97.5597,-0.0742226,0.000280023,0,0,0,0,-0.002284039,38
4,7725,97.9238,-0.00183994,0.000723643,0,0,0,0,-0.002284039,38
4,7774,98.288,0.0708495,0.00111862,0,0,0,0,-0.002284039,38
4,7822,98.6447,0.142619,0.000933737,0,0,0,0,-0.002284039,38
4,7871,99.0089,0.215615,0.000808294,0,0,0,0,-0.002284039,38
4,7920,99.3731,0.288611,0.000909384,0,0,0,0,-0.002284039,38
4,7969,99.7372,0.360994,0.00100679,0,0,0,0,-0.002284039,38
4,7995,99.9305,0.399639,0.00105323,0,0,0,0,-0.002284039,38

File: secondelectrode-1.2CV_650_FLiNaK_Ni_02_11_25_200mVperS_sh15.csv
Segment,Point,Elapsed Time (s),Potential (V),Current (A),Frequency (Hz),|Z| (ohms),Zre (ohms),Zim (ohms),Phase of Z (deg),ActionId
0,0,0.006,-0.00122683,6.37949e-06,0,0,0,0,-0.002284039,38
0,19,0.126,-0.0251499,-0.000264013,0,0,0,0,-0.002284039,38
0,37,0.234,-0.0472328,-0.000292107,0,0,0,0,-0.002284039,38
0,55,0.342,-0.0693156,-0.00029088,0,0,0,0,-0.002284039,38
0,73,0.45,-0.0901717,-0.000282661,0,0,0,0,-0.002284039,38
0,91,0.558,-0.111641,-0.000287384,0,0,0,0,-0.002284039,38
0,109,0.666,-0.133417,-0.000292046,0,0,0,0,-0.002284039,38
0,128,0.78,-0.156114,-0.000308056,0,0,0,0,-0.002284039,38
0,147,0.894,-0.178503,-0.000334801,0,0,0,0,-0.002284039,38
0,165,1.002,-0.200586,-0.000361729,0,0,0,0,-0.002284039,38
0,183,1.11,-0.222055,-0.000393811,0,0,0,0,-0.002284039,38
0,201,1.218,-0.243832,-0.000429634,0,0,0,0,-0.002284039,38
0,219,1.326,-0.265301,-0.000464967,0,0,0,0,-0.002284039,38
0,237,1.434,-0.286464,-0.000496742,0,0,0,0,-0.002284039,38
0,255,1.542,-0.30824,-0.000536368,0,0,0,0,-0.002284039,38
0,273,1.65,-0.330016,-0.000575258,0,0,0,0,-0.002284039,38
0,292,1.764,-0.353019,-0.000618381,0,0,0,0,-0.002284039,38
0,310,1.872,-0.374488,-0.000650892,0,0,0,0,-0.002284039,38
0,328,1.98,-0.395958,-0.000679661,0,0,0,0,-0.002284039,38
0,346,2.088,-0.417734,-0.000703155,0,0,0,0,-0.002284039,38
0,364,2.196,-0.439203,-0.000718858,0,0,0,0,-0.002284039,38
0,382,2.304,-0.460673,-0.000729164,0,0,0,0,-0.002284039,38
0,400,2.412,-0.482449,-0.000737751,0,0,0,0,-0.002284039,38
0,419,2.526,-0.505145,-0.000744622,0,0,0,0,-0.002284039,38
0,438,2.64,-0.527842,-0.000752596,0,0,0,0,-0.002284039,38
0,456,2.748,-0.549924,-0.00076057,0,0,0,0,-0.002284039,38
0,474,2.856,-0.571087,-0.000772716,0,0,0,0,-0.002284039,38
0,492,2.964,-0.592557,-0.000778911,0,0,0,0,-0.002284039,38
0,510,3.072,-0.61464,-0.000807864,0,0,0,0,-0.002284039,38
0,528,3.18,-0.636416,-0.000829334,0,0,0,0,-0.002284039,38
0,546,3.288,-0.657272,-0.000865648,0,0,0,0,-0.002284039,38
0,564,3.396,-0.678741,-0.00091055,0,0,0,0,-0.002284039,38
0,583,3.51,-0.702051,-0.000964898,0,0,0,0,-0.002284039,38
0,601,3.618,-0.72352,-0.00103777,0,0,0,0,-0.002284039,38
0,619,3.726,-0.745296,-0.00110954,0,0,0,0,-0.002284039,38
0,637,3.834,-0.766459,-0.00117143,0,0,0,0,-0.002284039,38
0,655,3.942,-0.788542,-0.00122885,0,0,0,0,-0.002284039,38
0,673,4.05,-0.809705,-0.00126105,0,0,0,0,-0.002284039,38
0,691,4.158,-0.831481,-0.00128314,0,0,0,0,-0.002284039,38
0,710,4.272,-0.85387,-0.00129602,0,0,0,0,-0.002284039,38
0,729,4.386,-0.87718,-0.0013243,0,0,0,0,-0.002284039,38
0,747,4.494,-0.898343,-0.00135374,0,0,0,0,-0.002284039,38
0,765,4.602,-0.919812,-0.00139171,0,0,0,0,-0.002284039,38
0,783,4.71,-0.942202,-0.00143827,0,0,0,0,-0.002284039,38
0,801,4.818,-0.963365,-0.00147477,0,0,0,0,-0.002284039,38
0,819,4.926,-0.985141,-0.00150574,0,0,0,0,-0.002284039,38
0,837,5.034,-1.00661,-0.00152206,0,0,0,0,-0.002284039,38
0,855,5.142,-1.02808,-0.00152488,0,0,0,0,-0.002284039,38
0,874,5.256,-1.05078,-0.00152488,0,0,0,0,-0.002284039,38
0,892,5.364,-1.07225,-0.00152715,0,0,0,0,-0.002284039,38
0,910,5.472,-1.09371,-0.00152666,0,0,0,0,-0.002284039,38
0,928,5.58,-1.11549,-0.00154482,0,0,0,0,-0.002284039,38
0,946,5.688,-1.13696,-0.00156359,0,0,0,0,-0.002284039,38
0,964,5.796,-1.15843,-0.00157708,0,0,0,0,-0.002284039,38
0,982,5.904,-1.18051,-0.001608,0,0,0,0,-0.002284039,38
1,1001,6.045024,-1.19155,-0.00142152,0,0,0,0,-0.002284039,38
1,1019,6.315168,-1.13727,-0.00122768,0,0,0,0,-0.002284039,38
1,1037,6.585312,-1.08329,-0.00110359,0,0,0,0,-0.002284039,38
1,1055,6.855456,-1.02992,-0.00101612,0,0,0,0,-0.002284039,38
1,1073,7.1256,-0.975019,-0.000943429,0,0,0,0,-0.002284039,38
1,1091,7.395744,-0.921346,-0.000817986,0,0,0,0,-0.002284039,38
1,1109,7.665888,-0.866752,-0.000645494,0,0,0,0,-0.002284039,38
1,1127,7.936032,-0.813385,-0.000385407,0,0,0,0,-0.002284039,38
1,1145,8.206176,-0.759405,-0.000100606,0,0,0,0,-0.002284039,38
1,1163,8.47632,-0.705731,0.000131841,0,0,0,0,-0.002284039,38
1,1181,8.746464,-0.651138,0.000331979,0,0,0,0,-0.002284039,38
1,1199,9.016608,-0.597464,0.000366514,0,0,0,0,-0.002284039,38
1,1217,9.286752,-0.543484,0.00017789,0,0,0,0,-0.002284039,38
1,1235,9.556896,-0.489503,5.93538e-05,0,0,0,0,-0.002284039,38
1,1253,9.82704,-0.435523,0.000159021,0,0,0,0,-0.002284039,38
1,1271,10.0972,-0.381849,0.000308915,0,0,0,0,-0.002284039,38
1,1289,10.3673,-0.327562,0.000354553,0,0,0,0,-0.002284039,38
1,1307,10.6375,-0.272969,0.000379028,0,0,0,0,-0.002284039,38
1,1325,10.9076,-0.219295,0.000417243,0,0,0,0,-0.002284039,38
1,1343,11.17776,-0.164701,0.000428653,0,0,0,0,-0.002284039,38
1,1361,11.4479,-0.111334,0.000468034,0,0,0,0,-0.002284039,38
1,1379,11.718,-0.0570474,0.000600408,0,0,0,0,-0.002284039,38
1,1397,11.9882,-0.00368048,0.00100035,0,0,0,0,-0.002284039,38
1,1415,12.2583,0.0506065,0.00226717,0,0,0,0,-0.002284039,38
1,1433,12.52848,0.103667,0.00512261,0,0,0,0,-0.002284039,38
1,1451,12.7986,0.157647,0.00824243,0,0,0,0,-0.002284039,38
1,1469,13.0688,0.211934,0.00693402,0,0,0,0,-0.002284039,38
1,1487,13.3389,0.266221,0.00493245,0,0,0,0,-0.002284039,38
1,1505,13.6091,0.319895,0.0051907,0,0,0,0,-0.002284039,38
1,1523,13.8792,0.374182,0.00560782,0,0,0,0,-0.002284039,38
1,1541,14.1493,0.428162,0.00627337,0,0,0,0,-0.002284039,38
1,1559,14.4195,0.482142,0.00698064,0,0,0,0,-0.002284039,38
1,1577,14.6896,0.536429,0.00765171,0,0,0,0,-0.002284039,38
1,1595,14.9598,0.590103,0.00800504,0,0,0,0,-0.002284039,38
1,1613,15.22992,0.644083,0.00779463,0,0,0,0,-0.002284039,38
1,1631,15.5001,0.698064,0.00748793,0,0,0,0,-0.002284039,38
1,1649,15.7702,0.752351,0.00794063,0,0,0,0,-0.002284039,38
1,1667,16.0404,0.805411,0.00793633,0,0,0,0,-0.002284039,38
1,1685,16.3105,0.859391,0.00924168,0,0,0,0,-0.002284039,38
1,1703,16.58064,0.913678,0.0113837,0,0,0,0,-0.002284039,38
1,1721,16.8508,0.967352,0.0145183,0,0,0,0,-0.002284039,38
1,1739,17.1209,1.01949,0.020764,0,0,0,0,-0.002284039,38
1,1757,17.3911,1.07255,0.0290942,0,0,0,0,-0.002284039,38
1,1775,17.6612,1.12439,0.0389088,0,0,0,0,-0.002284039,38
1,1793,17.93136,1.17653,0.0487356,0,0,0,0,-0.002284039,38
1,1811,18.2015,1.22897,0.0606481,0,0,0,0,-0.002284039,38
1,1829,18.4716,1.28019,0.0741677,0,0,0,0,-0.002284039,38
1,1847,18.7418,1.33264,0.0878959,0,0,0,0,-0.002284039,38
1,1865,19.0119,1.38355,0.103679,0,0,0,0,-0.002284039,38
1,1883,19.28208,1.43784,0.102452,0,0,0,0,-0.002284039,38
1,1901,19.5522,1.50439,0.0308056,0,0,0,0,-0.002284039,38
1,1919,19.8224,1.55408,0.0539926,0,0,0,0,-0.002284039,38
1,1937,20.0925,1.60438,0.0778237,0,0,0,0,-0.002284039,38
1,1955,20.3627,1.65591,0.0907421,0,0,0,0,-0.002284039,38
1,1973,20.6328,1.71173,0.0822034,0,0,0,0,-0.002284039,38
1,1991,20.9029,1.7654,0.0818354,0,0,0,0,-0.002284039,38
1,2009,21.1731,1.75099,0.0852092,0,0,0,0,-0.002284039,38
1,2027,21.4432,1.69639,0.0873745,0,0,0,0,-0.002284039,38
1,2045,21.7134,1.64517,0.0698738,0,0,0,0,-0.002284039,38
1,2063,21.98352,1.59395,0.0540785,0,0,0,0,-0.002284039,38
1,2081,22.2537,1.54243,0.0397246,0,0,0,0,-0.002284039,38
1,2099,22.5238,1.49151,0.0197826,0,0,0,0,-0.002284039,38
1,2117,22.794,1.44091,-0.00466746,0,0,0,0,-0.002284039,38
1,2135,23.0641,1.39153,-0.0277876,0,0,0,0,-0.002284039,38
1,2153,23.33424,1.34184,-0.0501772,0,0,0,0,-0.002284039,38
1,2171,23.6044,1.29185,-0.0769526,0,0,0,0,-0.002284039,38
1,2189,23.8745,1.24216,-0.101176,0,0,0,0,-0.002284039,38
1,2207,24.1447,1.18971,-0.113107,0,0,0,0,-0.002284039,38
1,2225,24.4148,1.13052,-0.0780874,0,0,0,0,-0.002284039,38
1,2243,24.68496,1.07531,-0.0695181,0,0,0,0,-0.002284039,38
1,2261,24.9551,1.01581,-0.0396326,0,0,0,0,-0.002284039,38
1,2279,25.2252,0.959684,-0.0269656,0,0,0,0,-0.002284039,38
1,2297,25.4954,0.904477,-0.0191201,0,0,0,0,-0.002284039,38
1,2315,25.7655,0.849577,-0.0146544,0,0,0,0,-0.002284039,38
1,2333,26.03568,0.794369,-0.0114027,0,0,0,0,-0.002284039,38
1,2351,26.3058,0.739162,-0.00899631,0,0,0,0,-0.002284039,38
1,2369,26.576,0.685795,-0.00720453,0,0,0,0,-0.002284039,38
1,2387,26.8461,0.631815,-0.00585625,0,0,0,0,-0.002284039,38
1,2405,27.1163,0.577221,-0.00473923,0,0,0,0,-0.002284039,38
1,2423,27.3864,0.522934,-0.00380316,0,0,0,0,-0.002284039,38
1,2441,27.6565,0.468954,-0.0029407,0,0,0,0,-0.002284039,38
1,2459,27.9267,0.414974,-0.00222791,0,0,0,0,-0.002284039,38
1,2477,28.1968,0.360993,-0.00173841,0,0,0,0,-0.002284039,38
1,2495,28.467,0.307013,-0.00140472,0,0,0,0,-0.002284039,38
1,2513,28.73712,0.253033,-0.00118315,0,0,0,0,-0.002284039,38
1,2531,29.0073,0.198746,-0.00106317,0,0,0,0,-0.002284039,38
1,2549,29.2774,0.143845,-0.00100244,0,0,0,0,-0.002284039,38
1,2567,29.5476,0.0907851,-0.000969192,0,0,0,0,-0.002284039,38
1,2585,29.8177,0.0364981,-0.000992502,0,0,0,0,-0.002284039,38
1,2603,30.08784,-0.0171756,-0.00118689,0,0,0,0,-0.002284039,38
1,2621,30.358,-0.0714626,-0.00133883,0,0,0,0,-0.002284039,38
1,2639,30.6281,-0.124829,-0.00148526,0,0,0,0,-0.002284039,38
1,2657,30.8983,-0.179117,-0.00159076,0,0,0,0,-0.002284039,38
1,2675,31.1684,-0.232483,-0.00166732,0,0,0,0,-0.002284039,38
1,2693,31.43856,-0.287077,-0.00175068,0,0,0,0,-0.002284039,38
1,2711,31.7087,-0.341364,-0.00185803,0,0,0,0,-0.002284039,38
1,2729,31.9788,-0.394731,-0.00199666,0,0,0,0,-0.002284039,38
1,2747,32.249,-0.449325,-0.00217393,0,0,0,0,-0.002284039,38
1,2765,32.5191,-0.502998,-0.00236287,0,0,0,0,-0.002284039,38
1,2783,32.78928,-0.556979,-0.00259596,0,0,0,0,-0.002284039,38
1,2801,33.0594,-0.610959,-0.00291616,0,0,0,0,-0.002284039,38
1,2819,33.3296,-0.665246,-0.00339401,0,0,0,0,-0.002284039,38
1,2837,33.5997,-0.71892,-0.00413133,0,0,0,0,-0.002284039,38
1,2855,33.8699,-0.7729,-0.00526124,0,0,0,0,-0.002284039,38
1,2873,34.14,-0.82688,-0.00699597,0,0,0,0,-0.002284039,38
1,2891,34.4101,-0.880247,-0.00987656,0,0,0,0,-0.002284039,38
1,2909,34.6803,-0.933614,-0.0174148,0,0,0,0,-0.002284039,38
1,2927,34.9504,-0.972566,-0.0981644,0,0,0,0,-0.002284039,38
1,2945,35.2206,-1.01458,-0.170302,0,0,0,0,-0.002284039,38
1,2963,35.49072,-0.974406,-0.127529,0,0,0,0,-0.002284039,38
1,2981,35.7609,-0.709412,-6.15376e-10,0,0,0,0,-0.002284039,38
2,2999,36.031,-0.654205,-5.03366e-10,0,0,0,0,-0.002284039,38
2,3007,36.1511,-0.646537,1.69977e-09,0,0,0,0,-0.002284039,38