Folder: ElectroChem/Feb25/CV02.11.25 (part 3)

File: secondelectrode-1.108CV_650_FLiNaK_Ni_02_11_25_200mVperS_sh15.csv
Segment,Point,Elapsed Time (s),Potential (V),Current (A),Frequency (Hz),|Z| (ohms),Zre (ohms),Zim (ohms),Phase of Z (deg),ActionId
0,0,0.00554,-0.00122653,-0.000110555,0,0,0,0,-0.002284039,38
0,49,0.28254,-0.0567404,-0.000493184,0,0,0,0,-0.002284039,38
0,97,0.54846,-0.109187,-0.000569492,0,0,0,0,-0.002284039,38
0,145,0.81438,-0.162247,-0.000669785,0,0,0,0,-0.002284039,38
0,195,1.09138,-0.217761,-0.000809827,0,0,0,0,-0.002284039,38
0,243,1.3573,-0.271128,-0.00094576,0,0,0,0,-0.002284039,38
0,291,1.62322,-0.323882,-0.00108991,0,0,0,0,-0.002284039,38
0,341,1.90022,-0.379395,-0.00123854,0,0,0,0,-0.002284039,38
0,389,2.16614,-0.432762,-0.00134503,0,0,0,0,-0.002284039,38
0,437,2.43206,-0.486129,-0.0014198,0,0,0,0,-0.002284039,38
0,486,2.70352,-0.540416,-0.00148642,0,0,0,0,-0.002284039,38
0,534,2.96944,-0.593476,-0.00156801,0,0,0,0,-0.002284039,38
0,582,3.23536,-0.646843,-0.00167321,0,0,0,0,-0.002284039,38
0,632,3.5179,-0.702971,-0.00183901,0,0,0,0,-0.002284039,38
0,680,3.78382,-0.756338,-0.00204266,0,0,0,0,-0.002284039,38
0,728,4.04974,-0.809398,-0.00226043,0,0,0,0,-0.002284039,38
0,778,4.32674,-0.864298,-0.00237759,0,0,0,0,-0.002284039,38
0,826,4.59266,-0.917972,-0.00249966,0,0,0,0,-0.002284039,38
0,875,4.86412,-0.972259,-0.00264565,0,0,0,0,-0.002284039,38
0,924,5.13558,-1.02624,-0.00275545,0,0,0,0,-0.002284039,38
0,972,5.4015,-1.0793,-0.00281679,0,0,0,0,-0.002284039,38
1,1020,5.874581,-1.04127,-0.00229294,0,0,0,0,-0.002284039,38
1,1068,6.572837,-0.901716,-0.00169915,0,0,0,0,-0.002284039,38
1,1116,7.271093,-0.762165,-0.00090509,0,0,0,0,-0.002284039,38
1,1164,7.969349,-0.622307,-0.000440185,0,0,0,0,-0.002284039,38
1,1212,8.667605,-0.482755,-0.000389394,0,0,0,0,-0.002284039,38
1,1261,9.380408,-0.340444,3.98596e-05,0,0,0,0,-0.002284039,38
1,1309,10.0787,-0.201199,0.000303823,0,0,0,0,-0.002284039,38
1,1357,10.77692,-0.0610343,0.000561518,0,0,0,0,-0.002284039,38
1,1405,11.4752,0.0772903,0.00336948,0,0,0,0,-0.002284039,38
1,1454,12.188,0.220215,0.00418838,0,0,0,0,-0.002284039,38
1,1502,12.8862,0.359767,0.00507783,0,0,0,0,-0.002284039,38
1,1550,13.5845,0.499318,0.00663958,0,0,0,0,-0.002284039,38
1,1598,14.2827,0.63887,0.00697941,0,0,0,0,-0.002284039,38
1,1647,14.99555,0.781488,0.00747811,0,0,0,0,-0.002284039,38
1,1695,15.6938,0.920426,0.0111666,0,0,0,0,-0.002284039,38
1,1743,16.3921,1.05844,0.0193041,0,0,0,0,-0.002284039,38
1,1791,17.0903,1.19401,0.0422151,0,0,0,0,-0.002284039,38
1,1839,17.7886,1.32773,0.0766889,0,0,0,0,-0.002284039,38
1,1888,18.5014,1.46514,0.107034,0,0,0,0,-0.002284039,38
1,1936,19.1996,1.61205,0.0643899,0,0,0,0,-0.002284039,38
1,1984,19.8979,1.74731,0.0894969,0,0,0,0,-0.002284039,38
1,2032,20.5961,1.68228,0.0826574,0,0,0,0,-0.002284039,38
1,2081,21.3089,1.54611,0.0471469,0,0,0,0,-0.002284039,38
1,2129,22.0072,1.41453,0.000316522,0,0,0,0,-0.002284039,38
1,2177,22.70546,1.28571,-0.0638011,0,0,0,0,-0.002284039,38
1,2225,23.4037,1.15352,-0.108089,0,0,0,0,-0.002284039,38
1,2274,24.1165,1.0014,-0.0502017,0,0,0,0,-0.002284039,38
1,2322,24.8148,0.855711,-0.0156236,0,0,0,0,-0.002284039,38
1,2370,25.513,0.714626,-0.00717079,0,0,0,0,-0.002284039,38
1,2418,26.2113,0.574155,-0.00413011,0,0,0,0,-0.002284039,38
1,2467,26.92409,0.431229,-0.00217087,0,0,0,0,-0.002284039,38
1,2515,27.6223,0.291678,-0.00121333,0,0,0,0,-0.002284039,38
1,2563,28.3206,0.152127,-0.00104145,0,0,0,0,-0.002284039,38
1,2611,29.0189,0.0125753,-0.00129344,0,0,0,0,-0.002284039,38
1,2660,29.7317,-0.129736,-0.00211505,0,0,0,0,-0.002284039,38
1,2708,30.4299,-0.269288,-0.00261252,0,0,0,0,-0.002284039,38
1,2756,31.1282,-0.408839,-0.00314435,0,0,0,0,-0.002284039,38
1,2804,31.8264,-0.548697,-0.00370133,0,0,0,0,-0.002284039,38
1,2853,32.5392,-0.690089,-0.00475947,0,0,0,0,-0.002284039,38
1,2901,33.2375,-0.830254,-0.00750388,0,0,0,0,-0.002284039,38
1,2949,33.9357,-0.968885,-0.0152482,0,0,0,0,-0.002284039,38
1,2997,34.634,-1.08727,-0.110856,0,0,0,0,-0.002284039,38
2,3046,35.3468,-0.949869,-0.0825163,0,0,0,0,-0.002284039,38
2,3094,36.0451,-0.818599,-0.0340689,0,0,0,0,-0.002284039,38
2,3142,36.7433,-0.688862,0.0272662,0,0,0,0,-0.002284039,38
2,3190,37.4416,-0.554218,0.0532381,0,0,0,0,-0.002284039,38
2,3239,38.1544,-0.402398,-0.00215921,0,0,0,0,-0.002284039,38
2,3287,38.85263,-0.262847,0.000338911,0,0,0,0,-0.002284039,38
2,3335,39.5509,-0.123602,0.00082504,0,0,0,0,-0.002284039,38
2,3383,40.2491,0.015949,0.00127173,0,0,0,0,-0.002284039,38
2,3431,40.9474,0.155194,0.00137895,0,0,0,0,-0.002284039,38
2,3480,41.6602,0.298426,0.00181754,0,0,0,0,-0.002284039,38
2,3528,42.3585,0.43767,0.00222362,0,0,0,0,-0.002284039,38
2,3576,43.0567,0.576915,0.00259106,0,0,0,0,-0.002284039,38
2,3624,43.755,0.716773,0.00645924,0,0,0,0,-0.002284039,38
2,3673,44.4678,0.857858,0.0122548,0,0,0,0,-0.002284039,38
2,3721,45.166,0.997716,0.0144434,0,0,0,0,-0.002284039,38
2,3769,45.8643,1.13757,0.0127529,0,0,0,0,-0.002284039,38
2,3817,46.56254,1.27713,0.0134061,0,0,0,0,-0.002284039,38
2,3866,47.2753,1.41729,0.0228128,0,0,0,0,-0.002284039,38
2,3914,47.9736,1.55132,0.053692,0,0,0,0,-0.002284039,38
2,3962,48.6719,1.68535,0.0868838,0,0,0,0,-0.002284039,38
2,4010,49.3701,1.74363,0.0871046,0,0,0,0,-0.002284039,38
2,4059,50.0829,1.61328,0.0166542,0,0,0,0,-0.002284039,38
2,4107,50.78117,1.4817,-0.0317748,0,0,0,0,-0.002284039,38
2,4155,51.4794,1.34245,-0.034302,0,0,0,0,-0.002284039,38
2,4203,52.1777,1.1983,-0.0119511,0,0,0,0,-0.002284039,38
2,4252,52.8905,1.05568,-0.0047975,0,0,0,0,-0.002284039,38
2,4300,53.5887,0.915212,-0.00179362,0,0,0,0,-0.002284039,38
2,4348,54.287,0.775661,-0.000102023,0,0,0,0,-0.002284039,38
2,4396,54.9853,0.635803,0.000534221,0,0,0,0,-0.002284039,38
2,4445,55.6981,0.492877,0.000572743,0,0,0,0,-0.002284039,38
2,4493,56.3963,0.353633,-0.000355227,0,0,0,0,-0.002284039,38
2,4541,57.0946,0.214695,-0.000709289,0,0,0,0,-0.002284039,38
2,4589,57.7928,0.0748366,-0.00110795,0,0,0,0,-0.002284039,38
2,4638,58.5056,-0.0680885,-0.00144385,0,0,0,0,-0.002284039,38
2,4686,59.2039,-0.207026,-0.00181294,0,0,0,0,-0.002284039,38
2,4734,59.9021,-0.346578,-0.00231931,0,0,0,0,-0.002284039,38
2,4782,60.6004,-0.486129,-0.00298241,0,0,0,0,-0.002284039,38
2,4831,61.3132,-0.628441,-0.00368906,0,0,0,0,-0.002284039,38
2,4879,62.0115,-0.767992,-0.0048846,0,0,0,0,-0.002284039,38
2,4927,62.70971,-0.907544,-0.00790628,0,0,0,0,-0.002284039,38
2,4975,63.408,-1.04648,-0.0163309,0,0,0,0,-0.002284039,38
3,5023,64.1062,-1.02532,-0.0209112,0,0,0,0,-0.002284039,38
3,5072,64.819,-0.885154,-0.0102317,0,0,0,0,-0.002284039,38
3,5120,65.5173,-0.746216,-0.00400252,0,0,0,0,-0.002284039,38
3,5168,66.2155,-0.606972,-0.00224141,0,0,0,0,-0.002284039,38
3,5216,66.9138,-0.46742,-0.00147894,0,0,0,0,-0.002284039,38
3,5265,67.6266,-0.324802,-0.000731065,0,0,0,0,-0.002284039,38
3,5313,68.3249,-0.18525,-0.000225552,0,0,0,0,-0.002284039,38
3,5361,69.0231,-0.045699,0.000691684,0,0,0,0,-0.002284039,38
3,5409,69.7214,0.0935457,0.00114457,0,0,0,0,-0.002284039,38
3,5458,70.4342,0.235857,0.00139674,0,0,0,0,-0.002284039,38
3,5506,71.1324,0.375716,0.00192489,0,0,0,0,-0.002284039,38
3,5554,71.8307,0.516187,0.00234508,0,0,0,0,-0.002284039,38
3,5602,72.5289,0.654512,0.00434726,0,0,0,0,-0.002284039,38
3,5651,73.2417,0.796823,0.00951035,0,0,0,0,-0.002284039,38
3,5699,73.94,0.935761,0.0136086,0,0,0,0,-0.002284039,38
3,5747,74.63825,1.07501,0.0140698,0,0,0,0,-0.002284039,38
3,5795,75.3365,1.21486,0.0142324,0,0,0,0,-0.002284039,38
3,5844,76.0493,1.35718,0.0151629,0,0,0,0,-0.002284039,38
3,5892,76.7476,1.49397,0.0256897,0,0,0,0,-0.002284039,38
3,5940,77.4458,1.6283,0.0585134,0,0,0,0,-0.002284039,38
3,5988,78.1441,1.76111,0.0988269,0,0,0,0,-0.002284039,38
3,6037,78.85688,1.67155,0.0380745,0,0,0,0,-0.002284039,38
3,6085,79.5551,1.53997,-0.0121744,0,0,0,0,-0.002284039,38
3,6133,80.2534,1.40564,-0.0398105,0,0,0,0,-0.002284039,38
3,6181,80.9516,1.26056,-0.0125406,0,0,0,0,-0.002284039,38
3,6229,81.6499,1.11979,-0.0045184,0,0,0,0,-0.002284039,38
3,6277,82.34816,0.97962,-0.00110647,0,0,0,0,-0.002284039,38
3,6325,83.0464,0.840376,-0.000479811,0,0,0,0,-0.002284039,38
3,6373,83.7447,0.700518,-0.000324189,0,0,0,0,-0.002284039,38
3,6421,84.4429,0.561273,-3.85284e-06,0,0,0,0,-0.002284039,38
3,6469,85.1412,0.420801,-6.20283e-05,0,0,0,0,-0.002284039,38
3,6517,85.83944,0.282477,-0.000299897,0,0,0,0,-0.002284039,38
3,6565,86.5377,0.142619,-0.000683955,0,0,0,0,-0.002284039,38
3,6613,87.236,0.00306736,-0.00127676,0,0,0,0,-0.002284039,38
3,6661,87.9342,-0.136484,-0.00183594,0,0,0,0,-0.002284039,38
3,6710,88.647,-0.279102,-0.00233342,0,0,0,0,-0.002284039,38
3,6758,89.3453,-0.418961,-0.00280698,0,0,0,0,-0.002284039,38
3,6806,90.0435,-0.558205,-0.003375,0,0,0,0,-0.002284039,38
3,6854,90.7418,-0.697143,-0.00405036,0,0,0,0,-0.002284039,38
3,6903,91.4546,-0.839762,-0.00536429,0,0,0,0,-0.002284039,38
3,6951,92.1528,-0.979313,-0.00876321,0,0,0,0,-0.002284039,38
4,6999,92.8159,-1.09034,-0.0176301,0,0,0,0,-0.002284039,38
4,7048,93.1834,-1.01796,-0.0136699,0,0,0,0,-0.002284039,38
4,7096,93.5435,-0.946495,-0.00960972,0,0,0,0,-0.002284039,38
4,7144,93.9035,-0.874726,-0.00623227,0,0,0,0,-0.002284039,38
4,7192,94.2636,-0.802343,-0.00417734,0,0,0,0,-0.002284039,38
4,7241,94.6311,-0.729347,-0.00314619,0,0,0,0,-0.002284039,38
4,7290,94.9987,-0.656045,-0.00261743,0,0,0,0,-0.002284039,38
4,7338,95.3587,-0.583969,-0.00222117,0,0,0,0,-0.002284039,38
4,7386,95.7188,-0.512199,-0.00183349,0,0,0,0,-0.002284039,38
4,7435,96.0863,-0.43859,-0.00140717,0,0,0,0,-0.002284039,38
4,7484,96.4538,-0.364674,-0.000997164,0,0,0,0,-0.002284039,38
4,7532,96.8139,-0.293211,-0.000612922,0,0,0,0,-0.002284039,38
4,7580,97.1739,-0.220828,-0.000441412,0,0,0,0,-0.002284039,38
4,7629,97.5565,-0.145072,0.000136472,0,0,0,0,-0.002284039,38
4,7678,97.924,-0.0714623,0.000610898,0,0,0,0,-0.002284039,38
4,7726,98.2841,0.000613706,0.000908035,0,0,0,0,-0.002284039,38
4,7774,98.6441,0.0729964,0.000939196,0,0,0,0,-0.002284039,38
4,7822,99.0042,0.144152,0.0010455,0,0,0,0,-0.002284039,38
4,7872,99.3792,0.219602,0.00132172,0,0,0,0,-0.002284039,38
4,7920,99.7393,0.291371,0.00158598,0,0,0,0,-0.002284039,38
4,7968,100.099,0.363141,0.00182368,0,0,0,0,-0.002284039,38
4,7992,100.279,0.399639,0.00192796,0,0,0,0,-0.002284039,38