Folder: ElectroChem/Feb25/CV02.11.25

Note: README.md
# Repository for Work
In use with VersaStudio Software

File: 2ndsecondelectrode-1.1CV_650_FLiNaK_Ni_02_11_25_200mVperS_sh15.csv
Segment,Point,Elapsed Time (s),Potential (V),Current (A),Frequency (Hz),|Z| (ohms),Zre (ohms),Zim (ohms),Phase of Z (deg),ActionId
0,0,0.00551,-0.00122653,-2.00991e-05,0,0,0,0,-0.002284039,38
0,49,0.2755,-0.0545934,-0.00062059,0,0,0,0,-0.002284039,38
0,98,0.54549,-0.108267,-0.000763085,0,0,0,0,-0.002284039,38
0,146,0.80997,-0.161941,-0.000929443,0,0,0,0,-0.002284039,38
0,195,1.07996,-0.215308,-0.0011115,0,0,0,0,-0.002284039,38
0,243,1.34444,-0.268981,-0.00129951,0,0,0,0,-0.002284039,38
0,291,1.60892,-0.321121,-0.00147912,0,0,0,0,-0.002284039,38
0,340,1.87891,-0.375102,-0.00165247,0,0,0,0,-0.002284039,38
0,389,2.1489,-0.429695,-0.00178785,0,0,0,0,-0.002284039,38
0,437,2.41338,-0.482142,-0.00189422,0,0,0,0,-0.002284039,38
0,486,2.68337,-0.536122,-0.0020077,0,0,0,0,-0.002284039,38
0,535,2.95336,-0.590103,-0.00212854,0,0,0,0,-0.002284039,38
0,584,3.22335,-0.644083,-0.00226901,0,0,0,0,-0.002284039,38
0,632,3.48783,-0.69653,-0.0024561,0,0,0,0,-0.002284039,38
0,681,3.75782,-0.750817,-0.00270638,0,0,0,0,-0.002284039,38
0,730,4.02781,-0.805104,-0.00297321,0,0,0,0,-0.002284039,38
0,778,4.29229,-0.857551,-0.00313822,0,0,0,0,-0.002284039,38
0,827,4.56228,-0.911531,-0.00329955,0,0,0,0,-0.002284039,38
0,875,4.82676,-0.964591,-0.00348418,0,0,0,0,-0.002284039,38
0,924,5.09675,-1.01888,-0.00364551,0,0,0,0,-0.002284039,38
0,973,5.36674,-1.07255,-0.0037504,0,0,0,0,-0.002284039,38
1,1021,5.829374,-1.0382,-0.00308362,0,0,0,0,-0.002284039,38
1,1069,6.52619,-0.898343,-0.00231195,0,0,0,0,-0.002284039,38
1,1117,7.223006,-0.759711,-0.00138441,0,0,0,0,-0.002284039,38
1,1166,7.934339,-0.617093,-0.000824856,0,0,0,0,-0.002284039,38
1,1214,8.631155,-0.478462,-0.000627828,0,0,0,0,-0.002284039,38
1,1262,9.327971,-0.338297,-9.43061e-05,0,0,0,0,-0.002284039,38
1,1310,10.0248,-0.199666,0.000292843,0,0,0,0,-0.002284039,38
1,1359,10.73612,-0.0576605,0.000654941,0,0,0,0,-0.002284039,38
1,1407,11.4329,0.0812775,0.00424788,0,0,0,0,-0.002284039,38
1,1455,12.1298,0.220215,0.00872396,0,0,0,0,-0.002284039,38
1,1504,12.8411,0.362527,0.00656536,0,0,0,0,-0.002284039,38
1,1552,13.5379,0.501772,0.00830254,0,0,0,0,-0.002284039,38
1,1600,14.2347,0.641017,0.00840437,0,0,0,0,-0.002284039,38
1,1648,14.9315,0.780261,0.00880861,0,0,0,0,-0.002284039,38
1,1696,15.6283,0.919199,0.0125388,0,0,0,0,-0.002284039,38
1,1744,16.3252,1.05814,0.0174614,0,0,0,0,-0.002284039,38
1,1792,17.022,1.19309,0.0324189,0,0,0,0,-0.002284039,38
1,1841,17.7333,1.33111,0.0615069,0,0,0,0,-0.002284039,38
1,1889,18.43013,1.46636,0.0859268,0,0,0,0,-0.002284039,38
1,1937,19.1269,1.6142,0.0349891,0,0,0,0,-0.002284039,38
1,1985,19.8238,1.74424,0.0889694,0,0,0,0,-0.002284039,38
1,2034,20.5351,1.68412,0.0738426,0,0,0,0,-0.002284039,38
1,2082,21.2319,1.55285,0.0319833,0,0,0,0,-0.002284039,38
1,2130,21.9287,1.42373,-0.0323821,0,0,0,0,-0.002284039,38
1,2178,22.6255,1.29399,-0.0905458,0,0,0,0,-0.002284039,38
1,2226,23.3224,1.14586,-0.0372832,0,0,0,0,-0.002284039,38
1,2274,24.0192,1.00324,-0.0146728,0,0,0,0,-0.002284039,38
1,2323,24.7305,0.858471,-0.00691193,0,0,0,0,-0.002284039,38
1,2371,25.4273,0.719227,-0.00335843,0,0,0,0,-0.002284039,38
1,2419,26.12414,0.579369,-0.00180773,0,0,0,0,-0.002284039,38
1,2467,26.821,0.440124,-0.00165057,0,0,0,0,-0.002284039,38
1,2516,27.5323,0.298119,-0.00157279,0,0,0,0,-0.002284039,38
1,2564,28.2291,0.158567,-0.00161131,0,0,0,0,-0.002284039,38
1,2612,28.9259,0.0190161,-0.00178123,0,0,0,0,-0.002284039,38
1,2660,29.6227,-0.119615,-0.0021267,0,0,0,0,-0.002284039,38
1,2709,30.33407,-0.261927,-0.00252358,0,0,0,0,-0.002284039,38
1,2757,31.0309,-0.401172,-0.00298364,0,0,0,0,-0.002284039,38
1,2805,31.7277,-0.54103,-0.00357681,0,0,0,0,-0.002284039,38
1,2853,32.4245,-0.679968,-0.00420862,0,0,0,0,-0.002284039,38
1,2901,33.1213,-0.818906,-0.00528516,0,0,0,0,-0.002284039,38
1,2949,33.81815,-0.957844,-0.00754988,0,0,0,0,-0.002284039,38
1,2997,34.515,-1.09678,-0.0133951,0,0,0,0,-0.002284039,38
2,3046,35.2263,-0.963364,-0.0067138,0,0,0,0,-0.002284039,38
2,3094,35.9231,-0.823506,-0.00381359,0,0,0,0,-0.002284039,38
2,3142,36.6199,-0.684875,-0.00278551,0,0,0,0,-0.002284039,38
2,3191,37.3313,-0.54287,-0.00193164,0,0,0,0,-0.002284039,38
2,3239,38.02808,-0.403319,-0.00105084,0,0,0,0,-0.002284039,38
2,3287,38.7249,-0.264074,-0.000457115,0,0,0,0,-0.002284039,38
2,3335,39.4217,-0.125443,0.000543974,0,0,0,0,-0.002284039,38
2,3383,40.1185,0.0141088,0.000801853,0,0,0,0,-0.002284039,38
2,3431,40.8153,0.153353,0.00139331,0,0,0,0,-0.002284039,38
2,3479,41.51216,0.292598,0.00186784,0,0,0,0,-0.002284039,38
2,3528,42.2235,0.435217,0.00253524,0,0,0,0,-0.002284039,38
2,3576,42.9203,0.573848,0.00567345,0,0,0,0,-0.002284039,38
2,3624,43.6171,0.712786,0.00706406,0,0,0,0,-0.002284039,38
2,3672,44.3139,0.852031,0.010609,0,0,0,0,-0.002284039,38
2,3721,45.0253,0.993115,0.0148237,0,0,0,0,-0.002284039,38
2,3769,45.72209,1.13297,0.0156543,0,0,0,0,-0.002284039,38
2,3817,46.4189,1.27252,0.0159248,0,0,0,0,-0.002284039,38
2,3866,47.1302,1.4133,0.0181288,0,0,0,0,-0.002284039,38
2,3914,47.8271,1.54917,0.0409208,0,0,0,0,-0.002284039,38
2,3962,48.5239,1.68167,0.0750572,0,0,0,0,-0.002284039,38
2,4010,49.2207,1.74976,0.0862029,0,0,0,0,-0.002284039,38
2,4058,49.9175,1.62156,0.0219847,0,0,0,0,-0.002284039,38
2,4106,50.6143,1.4909,-0.0312166,0,0,0,0,-0.002284039,38
2,4154,51.3111,1.35166,-0.0281986,0,0,0,0,-0.002284039,38
2,4203,52.0225,1.20474,-0.00819949,0,0,0,0,-0.002284039,38
2,4251,52.7193,1.0658,-0.00252235,0,0,0,0,-0.002284039,38
2,4299,53.4161,0.925947,3.11184e-05,0,0,0,0,-0.002284039,38
2,4347,54.1129,0.786395,-0.000498582,0,0,0,0,-0.002284039,38
2,4396,54.8242,0.64439,-0.000250763,0,0,0,0,-0.002284039,38
2,4444,55.5211,0.504532,-0.000196476,0,0,0,0,-0.002284039,38
2,4492,56.2179,0.365594,-0.000327317,0,0,0,0,-0.002284039,38
2,4540,56.9147,0.22635,-0.00063844,0,0,0,0,-0.002284039,38
2,4588,57.6115,0.0874116,-0.00113377,0,0,0,0,-0.002284039,38
2,4636,58.3083,-0.0527532,-0.00180386,0,0,0,0,-0.002284039,38
2,4685,59.0197,-0.194452,-0.0023917,0,0,0,0,-0.002284039,38
2,4733,59.7165,-0.334003,-0.00290083,0,0,0,0,-0.002284039,38
2,4781,60.4133,-0.472941,-0.00339217,0,0,0,0,-0.002284039,38
2,4829,61.11011,-0.612186,-0.00403196,0,0,0,0,-0.002284039,38
2,4878,61.8214,-0.754497,-0.00475579,0,0,0,0,-0.002284039,38
2,4926,62.5183,-0.893435,-0.00608689,0,0,0,0,-0.002284039,38
2,4974,63.2151,-1.03207,-0.00930792,0,0,0,0,-0.002284039,38
3,5022,63.9119,-1.03023,-0.00936313,0,0,0,0,-0.002284039,38
3,5071,64.6232,-0.888835,-0.00497232,0,0,0,0,-0.002284039,38
3,5119,65.32004,-0.749283,-0.00345719,0,0,0,0,-0.002284039,38
3,5167,66.0169,-0.610652,-0.00257204,0,0,0,0,-0.002284039,38
3,5215,66.7137,-0.471101,-0.0015685,0,0,0,0,-0.002284039,38
3,5263,67.4105,-0.332163,-0.000712785,0,0,0,0,-0.002284039,38
3,5311,68.1073,-0.192611,0.000354491,0,0,0,0,-0.002284039,38
3,5359,68.80412,-0.0536733,0.000943613,0,0,0,0,-0.002284039,38
3,5408,69.5155,0.0889451,0.0012954,0,0,0,0,-0.002284039,38
3,5456,70.2123,0.227883,0.00191323,0,0,0,0,-0.002284039,38
3,5504,70.9091,0.367128,0.00239599,0,0,0,0,-0.002284039,38
3,5553,71.6204,0.509133,0.00357865,0,0,0,0,-0.002284039,38
3,5601,72.3172,0.647764,0.00582435,0,0,0,0,-0.002284039,38
3,5649,73.01405,0.787622,0.00795596,0,0,0,0,-0.002284039,38
3,5697,73.7109,0.926253,0.0124087,0,0,0,0,-0.002284039,38
3,5745,74.4077,1.06488,0.0148391,0,0,0,0,-0.002284039,38
3,5793,75.1045,1.20413,0.0162419,0,0,0,0,-0.002284039,38
3,5841,75.8013,1.34368,0.0162266,0,0,0,0,-0.002284039,38
3,5890,76.5126,1.48354,0.0248923,0,0,0,0,-0.002284039,38
3,5938,77.2095,1.61757,0.0561886,0,0,0,0,-0.002284039,38
3,5986,77.9063,1.75007,0.0962015,0,0,0,0,-0.002284039,38
3,6034,78.6031,1.68382,0.0514408,0,0,0,0,-0.002284039,38
3,6083,79.3144,1.55101,-0.00423623,0,0,0,0,-0.002284039,38
3,6131,80.0112,1.41821,-0.0398841,0,0,0,0,-0.002284039,38
3,6179,80.70806,1.27437,-0.0138938,0,0,0,0,-0.002284039,38
3,6228,81.4194,1.13021,-0.00432824,0,0,0,0,-0.002284039,38
3,6276,82.1162,0.990662,-0.000724318,0,0,0,0,-0.002284039,38
3,6324,82.813,0.85111,0.000309405,0,0,0,0,-0.002284039,38
3,6372,83.5098,0.711866,-0.00027806,0,0,0,0,-0.002284039,38
3,6420,84.2067,0.572314,2.58431e-05,0,0,0,0,-0.002284039,38
3,6468,84.9035,0.433376,-0.000118419,0,0,0,0,-0.002284039,38
3,6516,85.6003,0.294132,-0.000456134,0,0,0,0,-0.002284039,38
3,6565,86.3116,0.152127,-0.000913433,0,0,0,0,-0.002284039,38
3,6613,87.0084,0.0125753,-0.00155825,0,0,0,0,-0.002284039,38
3,6661,87.7053,-0.126669,-0.00223221,0,0,0,0,-0.002284039,38
3,6709,88.40207,-0.265914,-0.00281924,0,0,0,0,-0.002284039,38
3,6758,89.1134,-0.407919,-0.00334801,0,0,0,0,-0.002284039,38
3,6806,89.8102,-0.547471,-0.00389394,0,0,0,0,-0.002284039,38
3,6854,90.507,-0.686102,-0.0045736,0,0,0,0,-0.002284039,38
3,6902,91.2039,-0.82596,-0.00547164,0,0,0,0,-0.002284039,38
3,6950,91.9007,-0.964898,-0.00743027,0,0,0,0,-0.002284039,38
4,6998,92.5834,-1.09065,-0.0120014,0,0,0,0,-0.002284039,38
4,7046,92.9422,-1.01918,-0.00879695,0,0,0,0,-0.002284039,38
4,7095,93.3085,-0.945882,-0.00627153,0,0,0,0,-0.002284039,38
4,7143,93.6673,-0.874113,-0.00483001,0,0,0,0,-0.002284039,38
4,7191,94.0261,-0.80265,-0.00400865,0,0,0,0,-0.002284039,38
4,7239,94.3849,-0.731188,-0.00348541,0,0,0,0,-0.002284039,38
4,7288,94.7511,-0.657885,-0.00301063,0,0,0,0,-0.002284039,38
4,7337,95.1174,-0.584889,-0.00252726,0,0,0,0,-0.002284039,38
4,7385,95.4762,-0.512813,-0.00198378,0,0,0,0,-0.002284039,38
4,7434,95.8425,-0.440123,-0.00145256,0,0,0,0,-0.002284039,38
4,7483,96.2088,-0.366514,-0.000926989,0,0,0,0,-0.002284039,38
4,7532,96.575,-0.293518,-0.000622123,0,0,0,0,-0.002284039,38
4,7581,96.9488,-0.218988,0.000135294,0,0,0,0,-0.002284039,38
4,7629,97.3076,-0.146912,0.000608137,0,0,0,0,-0.002284039,38
4,7678,97.6739,-0.0739159,0.000936436,0,0,0,0,-0.002284039,38
4,7726,98.0327,-0.00245336,0.000931345,0,0,0,0,-0.002284039,38
4,7775,98.3989,0.0708495,0.00120364,0,0,0,0,-0.002284039,38
4,7824,98.7652,0.144152,0.0015861,0,0,0,0,-0.002284039,38
4,7872,99.124,0.215922,0.00189974,0,0,0,0,-0.002284039,38
4,7921,99.4903,0.288918,0.00219234,0,0,0,0,-0.002284039,38
4,7969,99.8491,0.360687,0.00243709,0,0,0,0,-0.002284039,38
4,7995,100.043,0.399945,0.0026113,0,0,0,0,-0.002284039,38

File: scan1650secondelectrode-1.108CV_650_FLiNaK_Ni_02_11_25_200mVperS_sh15.csv
Segment,Point,Elapsed Time (s),Potential (V),Current (A),Frequency (Hz),|Z| (ohms),Zre (ohms),Zim (ohms),Phase of Z (deg),ActionId
0,0,0.0058,-0.000613119,-0.000456747,0,0,0,0,-0.002284039,38
0,32,0.1914,-0.0380313,-0.00212057,0,0,0,0,-0.002284039,38
0,64,0.377,-0.0751428,-0.00335598,0,0,0,0,-0.002284039,38
0,97,0.5684,-0.112868,-0.00446196,0,0,0,0,-0.002284039,38
0,129,0.754,-0.149979,-0.00545201,0,0,0,0,-0.002284039,38
0,161,0.9396,-0.187091,-0.00640157,0,0,0,0,-0.002284039,38
0,194,1.131,-0.225122,-0.00734991,0,0,0,0,-0.002284039,38
0,226,1.3166,-0.261927,-0.00825715,0,0,0,0,-0.002284039,38
0,258,1.5022,-0.299345,-0.00915702,0,0,0,0,-0.002284039,38
0,291,1.6936,-0.33707,-0.0100575,0,0,0,0,-0.002284039,38
0,323,1.8792,-0.373875,-0.0109237,0,0,0,0,-0.002284039,38
0,355,2.0648,-0.410986,-0.011761,0,0,0,0,-0.002284039,38
0,388,2.2562,-0.449631,-0.0125866,0,0,0,0,-0.002284039,38
0,420,2.4418,-0.486129,-0.0133656,0,0,0,0,-0.002284039,38
0,452,2.6274,-0.523547,-0.01413,0,0,0,0,-0.002284039,38
0,485,2.8188,-0.561579,-0.0149213,0,0,0,0,-0.002284039,38
0,517,3.0044,-0.598691,-0.0157003,0,0,0,0,-0.002284039,38
0,549,3.19,-0.635189,-0.0164468,0,0,0,0,-0.002284039,38
0,581,3.3756,-0.672913,-0.0172301,0,0,0,0,-0.002284039,38
0,614,3.567,-0.710638,-0.0180822,0,0,0,0,-0.002284039,38
0,647,3.7584,-0.747443,-0.0189299,0,0,0,0,-0.002284039,38
0,679,3.944,-0.785168,-0.0198132,0,0,0,0,-0.002284039,38
0,712,4.1354,-0.822893,-0.020672,0,0,0,0,-0.002284039,38
0,744,4.321,-0.859698,-0.0215001,0,0,0,0,-0.002284039,38
0,777,4.5124,-0.898343,-0.0223528,0,0,0,0,-0.002284039,38
0,809,4.698,-0.934841,-0.0232054,0,0,0,0,-0.002284039,38
0,841,4.8836,-0.971032,-0.024009,0,0,0,0,-0.002284039,38
0,874,5.075,-1.00968,-0.0248125,0,0,0,0,-0.002284039,38
0,906,5.2606,-1.04679,-0.0256222,0,0,0,0,-0.002284039,38
0,938,5.4462,-1.08359,-0.0264197,0,0,0,0,-0.002284039,38
0,971,5.6376,-1.12224,-0.0272662,0,0,0,0,-0.002284039,38
1,1004,5.874035,-1.14064,-0.026935,0,0,0,0,-0.002284039,38
1,1036,6.347859,-1.04648,-0.0241685,0,0,0,0,-0.002284039,38
1,1068,6.821683,-0.952016,-0.0217087,0,0,0,0,-0.002284039,38
1,1100,7.295507,-0.857857,-0.0193532,0,0,0,0,-0.002284039,38
1,1132,7.769331,-0.763699,-0.0168566,0,0,0,0,-0.002284039,38
1,1164,8.243155,-0.669233,-0.0148016,0,0,0,0,-0.002284039,38
1,1196,8.716979,-0.575688,-0.01264,0,0,0,0,-0.002284039,38
1,1228,9.190803,-0.481222,-0.0105476,0,0,0,0,-0.002284039,38
1,1260,9.664627,-0.387063,-0.00829027,0,0,0,0,-0.002284039,38
1,1292,10.1385,-0.292291,-0.00606052,0,0,0,0,-0.002284039,38
1,1324,10.6123,-0.197825,-0.00387922,0,0,0,0,-0.002284039,38
1,1356,11.0861,-0.10336,-0.00180221,0,0,0,0,-0.002284039,38
1,1388,11.5599,-0.0092009,0.000596237,0,0,0,0,-0.002284039,38
1,1420,12.0337,0.0855714,0.00525327,0,0,0,0,-0.002284039,38
1,1452,12.5076,0.179117,0.0164364,0,0,0,0,-0.002284039,38
1,1484,12.9814,0.271742,0.0196599,0,0,0,0,-0.002284039,38
1,1516,13.4552,0.365901,0.0225368,0,0,0,0,-0.002284039,38
1,1548,13.929,0.460367,0.0283642,0,0,0,0,-0.002284039,38
1,1580,14.4029,0.553605,0.0340505,0,0,0,0,-0.002284039,38
1,1612,14.8767,0.648071,0.0377249,0,0,0,0,-0.002284039,38
1,1644,15.3505,0.742536,0.0387738,0,0,0,0,-0.002284039,38
1,1676,15.8243,0.836695,0.0402337,0,0,0,0,-0.002284039,38
1,1708,16.2982,0.930854,0.0458833,0,0,0,0,-0.002284039,38
1,1740,16.772,1.02287,0.0617523,0,0,0,0,-0.002284039,38
1,1772,17.2458,1.11396,0.0829211,0,0,0,0,-0.002284039,38
1,1804,17.7196,1.20444,0.107629,0,0,0,0,-0.002284039,38
1,1836,18.1935,1.29553,0.128504,0,0,0,0,-0.002284039,38
1,1868,18.6673,1.40196,0.0590778,0,0,0,0,-0.002284039,38
1,1900,19.1411,1.48906,0.103354,0,0,0,0,-0.002284039,38
1,1932,19.6149,1.58138,0.118947,0,0,0,0,-0.002284039,38
1,1964,20.0888,1.67646,0.118076,0,0,0,0,-0.002284039,38
1,1996,20.5626,1.77215,0.112003,0,0,0,0,-0.002284039,38
1,2028,21.0364,1.69302,0.113592,0,0,0,0,-0.002284039,38
1,2060,21.5102,1.60101,0.10041,0,0,0,0,-0.002284039,38
1,2092,21.9841,1.50317,0.118996,0,0,0,0,-0.002284039,38
1,2124,22.4579,1.41576,0.0739162,0,0,0,0,-0.002284039,38
1,2156,22.9317,1.3219,0.0675183,0,0,0,0,-0.002284039,38
1,2188,23.4055,1.23265,0.0375163,0,0,0,0,-0.002284039,38
1,2220,23.8793,1.14463,-0.00151188,0,0,0,0,-0.002284039,38
1,2252,24.3532,1.05538,-0.0358785,0,0,0,0,-0.002284039,38
1,2284,24.827,0.966125,-0.0665675,0,0,0,0,-0.002284039,38
1,2316,25.3008,0.871046,-0.0669601,0,0,0,0,-0.002284039,38
1,2348,25.7746,0.778421,-0.0756399,0,0,0,0,-0.002284039,38
1,2380,26.2485,0.672607,-0.0130129,0,0,0,0,-0.002284039,38
1,2412,26.7223,0.575688,-0.000596912,0,0,0,0,-0.002284039,38
1,2444,27.1961,0.481223,0.002561,0,0,0,0,-0.002284039,38
1,2476,27.6699,0.386144,0.0033155,0,0,0,0,-0.002284039,38
1,2508,28.1438,0.291678,0.00352406,0,0,0,0,-0.002284039,38
1,2540,28.6176,0.196906,0.00277937,0,0,0,0,-0.002284039,38
1,2572,29.0914,0.102134,0.00131338,0,0,0,0,-0.002284039,38
1,2604,29.5652,0.00797466,-0.000770017,0,0,0,0,-0.002284039,38
1,2636,30.0391,-0.0871043,-0.00392891,0,0,0,0,-0.002284039,38
1,2668,30.5129,-0.17973,-0.0155574,0,0,0,0,-0.002284039,38
1,2700,30.9867,-0.274809,-0.0165897,0,0,0,0,-0.002284039,38
1,2732,31.4605,-0.367741,-0.0205677,0,0,0,0,-0.002284039,38
1,2764,31.9344,-0.461593,-0.0238495,0,0,0,0,-0.002284039,38
1,2796,32.4082,-0.556365,-0.0260884,0,0,0,0,-0.002284039,38
1,2828,32.882,-0.650217,-0.0280698,0,0,0,0,-0.002284039,38
1,2860,33.3558,-0.744683,-0.0299468,0,0,0,0,-0.002284039,38
1,2892,33.8297,-0.839762,-0.03183,0,0,0,0,-0.002284039,38
1,2924,34.3035,-0.933921,-0.0338174,0,0,0,0,-0.002284039,38
1,2956,34.7773,-1.02777,-0.0361177,0,0,0,0,-0.002284039,38
1,2988,35.2511,-1.12224,-0.0388597,0,0,0,0,-0.002284039,38
2,3020,35.7249,-1.09065,-0.0353326,0,0,0,0,-0.002284039,38
2,3052,36.1988,-0.996795,-0.0314987,0,0,0,0,-0.002284039,38
2,3084,36.6726,-0.902023,-0.0283151,0,0,0,0,-0.002284039,38
2,3116,37.1464,-0.807864,-0.0252726,0,0,0,0,-0.002284039,38
2,3148,37.6202,-0.714012,-0.0221749,0,0,0,0,-0.002284039,38
2,3180,38.0941,-0.618933,-0.0189422,0,0,0,0,-0.002284039,38
2,3212,38.5679,-0.525081,-0.0157708,0,0,0,0,-0.002284039,38
2,3244,39.0417,-0.431536,-0.0127099,0,0,0,0,-0.002284039,38
2,3276,39.5155,-0.33707,-0.00949808,0,0,0,0,-0.002284039,38
2,3308,39.9894,-0.243218,-0.00490117,0,0,0,0,-0.002284039,38
2,3340,40.4632,-0.149059,-0.00124339,0,0,0,0,-0.002284039,38
2,3372,40.937,-0.0545934,0.00198071,0,0,0,0,-0.002284039,38
2,3404,41.4108,0.0401788,0.00504164,0,0,0,0,-0.002284039,38
2,3436,41.8847,0.134338,0.00807313,0,0,0,0,-0.002284039,38
2,3468,42.3585,0.228803,0.0109641,0,0,0,0,-0.002284039,38
2,3500,42.8323,0.323269,0.0138625,0,0,0,0,-0.002284039,38
2,3532,43.3061,0.417428,0.0169296,0,0,0,0,-0.002284039,38
2,3564,43.78,0.510666,0.0201567,0,0,0,0,-0.002284039,38
2,3596,44.2538,0.604518,0.0238556,0,0,0,0,-0.002284039,38
2,3628,44.7276,0.698677,0.028217,0,0,0,0,-0.002284039,38
2,3660,45.2014,0.792529,0.033431,0,0,0,0,-0.002284039,38
2,3692,45.6753,0.886382,0.0402644,0,0,0,0,-0.002284039,38
2,3724,46.1491,0.979007,0.0499011,0,0,0,0,-0.002284039,38
2,3756,46.6229,1.07102,0.0648929,0,0,0,0,-0.002284039,38
2,3788,47.0967,1.16242,0.0838596,0,0,0,0,-0.002284039,38
2,3820,47.5705,1.25412,0.105446,0,0,0,0,-0.002284039,38
2,3852,48.0444,1.34491,0.126976,0,0,0,0,-0.002284039,38
2,3884,48.5182,1.436,0.147109,0,0,0,0,-0.002284039,38
2,3916,48.992,1.54795,0.0475027,0,0,0,0,-0.002284039,38
2,3948,49.4658,1.63536,0.0900428,0,0,0,0,-0.002284039,38
2,3980,49.9397,1.724,0.124872,0,0,0,0,-0.002284039,38
2,4012,50.4135,1.73596,0.133356,0,0,0,0,-0.002284039,38
2,4044,50.8873,1.64364,0.118879,0,0,0,0,-0.002284039,38
2,4076,51.3611,1.54948,0.11672,0,0,0,0,-0.002284039,38
2,4108,51.835,1.45962,0.0856815,0,0,0,0,-0.002284039,38
2,4140,52.3088,1.36975,0.0593293,0,0,0,0,-0.002284039,38
2,4172,52.7826,1.28203,0.0205493,0,0,0,0,-0.002284039,38
2,4204,53.2564,1.19125,-0.0134129,0,0,0,0,-0.002284039,38
2,4236,53.7303,1.10414,-0.0508703,0,0,0,0,-0.002284039,38
2,4268,54.2041,1.01244,-0.0678618,0,0,0,0,-0.002284039,38
2,4300,54.6779,0.909691,-0.0187582,0,0,0,0,-0.002284039,38
2,4332,55.1517,0.810625,0.00102182,0,0,0,0,-0.002284039,38
2,4364,55.6256,0.715853,0.00487479,0,0,0,0,-0.002284039,38
2,4396,56.0994,0.620161,0.00646292,0,0,0,0,-0.002284039,38
2,4428,56.5732,0.526308,0.0069242,0,0,0,0,-0.002284039,38
2,4460,57.047,0.431536,0.00683403,0,0,0,0,-0.002284039,38
2,4492,57.5209,0.336457,0.00606236,0,0,0,0,-0.002284039,38
2,4524,57.9947,0.242605,0.00464721,0,0,0,0,-0.002284039,38
2,4556,58.4685,0.147833,0.00286648,0,0,0,0,-0.002284039,38
2,4588,58.9423,0.0536739,0.000605561,0,0,0,0,-0.002284039,38
2,4620,59.4161,-0.0407916,-0.00245365,0,0,0,0,-0.002284039,38
2,4652,59.89,-0.135257,-0.00627582,0,0,0,0,-0.002284039,38
2,4684,60.3638,-0.229416,-0.0125013,0,0,0,0,-0.002284039,38
2,4716,60.8376,-0.321428,-0.0215737,0,0,0,0,-0.002284039,38
2,4748,61.3114,-0.41712,-0.0194697,0,0,0,0,-0.002284039,38
2,4780,61.7853,-0.510972,-0.023874,0,0,0,0,-0.002284039,38
2,4812,62.2591,-0.605131,-0.0275238,0,0,0,0,-0.002284039,38
2,4844,62.7329,-0.698983,-0.0295788,0,0,0,0,-0.002284039,38
2,4876,63.2067,-0.793142,-0.0316398,0,0,0,0,-0.002284039,38
2,4908,63.6806,-0.887915,-0.0341855,0,0,0,0,-0.002284039,38
2,4940,64.1544,-0.98238,-0.037363,0,0,0,0,-0.002284039,38
2,4972,64.6282,-1.07593,-0.0416446,0,0,0,0,-0.002284039,38
3,5004,65.102,-1.13481,-0.043583,0,0,0,0,-0.002284039,38
3,5036,65.5759,-1.04127,-0.0367312,0,0,0,0,-0.002284039,38
3,5068,66.0497,-0.947416,-0.0323821,0,0,0,0,-0.002284039,38
3,5100,66.5235,-0.853563,-0.0291923,0,0,0,0,-0.002284039,38
3,5132,66.9973,-0.758484,-0.0262663,0,0,0,0,-0.002284039,38
3,5164,67.4712,-0.664632,-0.0232483,0,0,0,0,-0.002284039,38
3,5196,67.945,-0.570167,-0.0200157,0,0,0,0,-0.002284039,38
3,5228,68.4188,-0.476315,-0.0166726,0,0,0,0,-0.002284039,38
3,5260,68.8926,-0.383076,-0.0127387,0,0,0,0,-0.002284039,38
3,5292,69.3665,-0.288304,-0.00745296,0,0,0,0,-0.002284039,38
3,5324,69.8403,-0.194758,-0.00300143,0,0,0,0,-0.002284039,38
3,5356,70.3141,-0.099986,0.00102317,0,0,0,0,-0.002284039,38
3,5384,70.7287,-0.0180954,0.00389026,0,0,0,0,-0.002284039,38